"success","timeout","failed_images","failed_audio","failed_video","trial_type","trial_index","time_elapsed","internal_node_id","rt","stimulus","response","task","test_trial"
"true","false","[]","[]","[]","preload","0","1226","0.0-0.0","","","","",""
"","","","","","html-keyboard-response","1","5773","0.0-1.0","4546","Welcome to the experiment. Press any key to begin."," ","",""
"","","","","","html-keyboard-response","2","24591","0.0-2.0","18816","
        <p>In this experiment, you will be shown short movies containing two objects. One of the objects will be moving toward the other.</p>
        <p>In these movies, the moving object either collides with the stationary object, or it comes to a stop before reaching the stationary object.
          However, you will be shown a clipped version of the movie that does not reveal the ending.</p> 
        <p>Please watch each clip carefully. Then predict whether or not the two objects will collide later on in the video.</p>
        <p>Press the <b>""F""</b> key for <b>yes</b>, the objects will collide.</p> 
        <p>Press the <b>""J""</b> key for <b>no</b>, the objects will not collide.</p>
        <p>Press any key to start.</p>
      "," ","",""
"","","","","","html-keyboard-response","3","26846","0.0-3.0-0.0","null","<div style=""font-size:60px;"">+</div>","null","fixation",""
"","","","","","video-keyboard-response","4","29437","0.0-3.0-1.0","2563","[""videos/slow_low_c4_white_mirror.mov""]","j","response","false"
"","","","","","html-keyboard-response","5","30439","0.0-3.0-0.1","null","<div style=""font-size:60px;"">+</div>","null","fixation",""
"","","","","","video-keyboard-response","6","32425","0.0-3.0-1.1","1985","[""videos/med_low_c7_white_mirror.mov""]","j","response","false"
"","","","","","html-keyboard-response","7","33178","0.0-3.0-0.2","null","<div style=""font-size:60px;"">+</div>","null","fixation",""
"","","","","","video-keyboard-response","8","35278","0.0-3.0-1.2","2098","[""videos/slow_med_c1_white.mov""]","f","response","false"
"","","","","","html-keyboard-response","9","36030","0.0-3.0-0.3","null","<div style=""font-size:60px;"">+</div>","null","fixation",""
"","","","","","video-keyboard-response","10","37792","0.0-3.0-1.3","1761","[""videos/fast_low_c12_white.mov""]","j","response","false"
"","","","","","html-keyboard-response","11","38544","0.0-3.0-0.4","null","<div style=""font-size:60px;"">+</div>","null","fixation",""
"","","","","","video-keyboard-response","12","42241","0.0-3.0-1.4","3695","[""videos/med_med_c6_white_mirror.mov""]","j","response","false"
"","","","","","html-keyboard-response","13","42993","0.0-3.0-0.5","null","<div style=""font-size:60px;"">+</div>","null","fixation",""
"","","","","","video-keyboard-response","14","45521","0.0-3.0-1.5","2526","[""videos/slow_high_c1_white.mov""]","f","response","false"
"","","","","","html-keyboard-response","15","46273","0.0-3.0-0.6","null","<div style=""font-size:60px;"">+</div>","null","fixation",""
"","","","","","video-keyboard-response","16","49057","0.0-3.0-1.6","2782","[""videos/fast_med_c17_white_mirror.mov""]","j","response","false"
"","","","","","html-keyboard-response","17","49559","0.0-3.0-0.7","null","<div style=""font-size:60px;"">+</div>","null","fixation",""
"","","","","","video-keyboard-response","18","54794","0.0-3.0-1.7","5234","[""videos/fast_low_c16_white_mirror.mov""]","j","response","false"
"","","","","","html-keyboard-response","19","55796","0.0-3.0-0.8","null","<div style=""font-size:60px;"">+</div>","null","fixation",""
"","","","","","video-keyboard-response","20","57740","0.0-3.0-1.8","1942","[""videos/fast_high_c15_white.mov""]","j","response","false"
"","","","","","html-keyboard-response","21","58241","0.0-3.0-0.9","null","<div style=""font-size:60px;"">+</div>","null","fixation",""
"","","","","","video-keyboard-response","22","61054","0.0-3.0-1.9","2811","[""videos/med_high_c13_white.mov""]","j","response","false"
"","","","","","html-keyboard-response","23","62055","0.0-3.0-0.10","null","<div style=""font-size:60px;"">+</div>","null","fixation",""
"","","","","","video-keyboard-response","24","67234","0.0-3.0-1.10","5177","[""videos/med_med_c14_white.mov""]","f","response","false"
"","","","","","html-keyboard-response","25","67985","0.0-3.0-0.11","null","<div style=""font-size:60px;"">+</div>","null","fixation",""
"","","","","","video-keyboard-response","26","70904","0.0-3.0-1.11","2917","[""videos/fast_high_c12_white.mov""]","j","response","false"
"","","","","","html-keyboard-response","27","71657","0.0-3.0-0.12","null","<div style=""font-size:60px;"">+</div>","null","fixation",""
"","","","","","video-keyboard-response","28","74023","0.0-3.0-1.12","2365","[""videos/fast_high_c10_white_mirror.mov""]","f","response","false"
"","","","","","html-keyboard-response","29","74775","0.0-3.0-0.13","null","<div style=""font-size:60px;"">+</div>","null","fixation",""
"","","","","","video-keyboard-response","30","76639","0.0-3.0-1.13","1862","[""videos/med_med_c4_white.mov""]","f","response","false"
"","","","","","html-keyboard-response","31","77140","0.0-3.0-0.14","null","<div style=""font-size:60px;"">+</div>","null","fixation",""
"","","","","","video-keyboard-response","32","79094","0.0-3.0-1.14","1953","[""videos/fast_low_c5_white_mirror.mov""]","f","response","false"
"","","","","","html-keyboard-response","33","79596","0.0-3.0-0.15","null","<div style=""font-size:60px;"">+</div>","null","fixation",""
"","","","","","video-keyboard-response","34","81378","0.0-3.0-1.15","1781","[""videos/fast_high_c8_white_mirror.mov""]","f","response","false"
"","","","","","html-keyboard-response","35","82381","0.0-3.0-0.16","null","<div style=""font-size:60px;"">+</div>","null","fixation",""
"","","","","","video-keyboard-response","36","84072","0.0-3.0-1.16","1690","[""videos/slow_med_c7_white.mov""]","j","response","false"
"","","","","","html-keyboard-response","37","85073","0.0-3.0-0.17","null","<div style=""font-size:60px;"">+</div>","null","fixation",""
"","","","","","video-keyboard-response","38","88810","0.0-3.0-1.17","3736","[""videos/med_med_c7_white_mirror.mov""]","f","response","false"
"","","","","","html-keyboard-response","39","89812","0.0-3.0-0.18","null","<div style=""font-size:60px;"">+</div>","null","fixation",""
"","","","","","video-keyboard-response","40","93202","0.0-3.0-1.18","3388","[""videos/med_low_c10_white_mirror.mov""]","f","response","false"
"","","","","","html-keyboard-response","41","94204","0.0-3.0-0.19","null","<div style=""font-size:60px;"">+</div>","null","fixation",""
"","","","","","video-keyboard-response","42","96579","0.0-3.0-1.19","2373","[""videos/slow_med_c3_white_mirror.mov""]","f","response","false"
"","","","","","html-keyboard-response","43","99040","0.0-3.0-2.19-0.19","2461","<p>You can take a quick break now if you need it.</p>
      <p>Press the spacebar to continue.</p>"," ","",""
"","","","","","html-keyboard-response","44","99542","0.0-3.0-0.20","null","<div style=""font-size:60px;"">+</div>","null","fixation",""
"","","","","","video-keyboard-response","45","102032","0.0-3.0-1.20","2489","[""videos/slow_low_c5_white.mov""]","f","response","false"
"","","","","","html-keyboard-response","46","103034","0.0-3.0-0.21","null","<div style=""font-size:60px;"">+</div>","null","fixation",""
"","","","","","video-keyboard-response","47","104840","0.0-3.0-1.21","1805","[""videos/med_low_c5_white_mirror.mov""]","f","response","false"
"","","","","","html-keyboard-response","48","105843","0.0-3.0-0.22","null","<div style=""font-size:60px;"">+</div>","null","fixation",""
"","","","","","video-keyboard-response","49","107581","0.0-3.0-1.22","1737","[""videos/slow_med_c2_white_mirror.mov""]","f","response","false"
"","","","","","html-keyboard-response","50","108083","0.0-3.0-0.23","null","<div style=""font-size:60px;"">+</div>","null","fixation",""
"","","","","","video-keyboard-response","51","109655","0.0-3.0-1.23","1571","[""videos/med_low_c9_white.mov""]","j","response","false"
"","","","","","html-keyboard-response","52","110157","0.0-3.0-0.24","null","<div style=""font-size:60px;"">+</div>","null","fixation",""
"","","","","","video-keyboard-response","53","111746","0.0-3.0-1.24","1587","[""videos/fast_high_c17_white_mirror.mov""]","j","response","false"
"","","","","","html-keyboard-response","54","112247","0.0-3.0-0.25","null","<div style=""font-size:60px;"">+</div>","null","fixation",""
"","","","","","video-keyboard-response","55","115541","0.0-3.0-1.25","3293","[""videos/med_low_c12_white.mov""]","j","response","false"
"","","","","","html-keyboard-response","56","116043","0.0-3.0-0.26","null","<div style=""font-size:60px;"">+</div>","null","fixation",""
"","","","","","video-keyboard-response","57","118158","0.0-3.0-1.26","2113","[""videos/med_high_c3_white.mov""]","f","response","false"
"","","","","","html-keyboard-response","58","118909","0.0-3.0-0.27","null","<div style=""font-size:60px;"">+</div>","null","fixation",""
"","","","","","video-keyboard-response","59","126688","0.0-3.0-1.27","7777","[""videos/fast_med_c14_white_mirror.mov""]","j","response","false"
"","","","","","html-keyboard-response","60","127690","0.0-3.0-0.28","null","<div style=""font-size:60px;"">+</div>","null","fixation",""
"","","","","","video-keyboard-response","61","129275","0.0-3.0-1.28","1583","[""videos/slow_med_c5_white.mov""]","j","response","false"
"","","","","","html-keyboard-response","62","130028","0.0-3.0-0.29","null","<div style=""font-size:60px;"">+</div>","null","fixation",""
"","","","","","video-keyboard-response","63","131798","0.0-3.0-1.29","1769","[""videos/med_high_c1_white_mirror.mov""]","f","response","false"
"","","","","","html-keyboard-response","64","132300","0.0-3.0-0.30","null","<div style=""font-size:60px;"">+</div>","null","fixation",""
"","","","","","video-keyboard-response","65","134388","0.0-3.0-1.30","2087","[""videos/slow_low_c7_white.mov""]","j","response","false"
"","","","","","html-keyboard-response","66","134889","0.0-3.0-0.31","null","<div style=""font-size:60px;"">+</div>","null","fixation",""
"","","","","","video-keyboard-response","67","138368","0.0-3.0-1.31","3478","[""videos/med_med_c9_white.mov""]","j","response","false"
"","","","","","html-keyboard-response","68","138869","0.0-3.0-0.32","null","<div style=""font-size:60px;"">+</div>","null","fixation",""
"","","","","","video-keyboard-response","69","140597","0.0-3.0-1.32","1727","[""videos/slow_high_c4_white.mov""]","j","response","false"
"","","","","","html-keyboard-response","70","141099","0.0-3.0-0.33","null","<div style=""font-size:60px;"">+</div>","null","fixation",""
"","","","","","video-keyboard-response","71","143767","0.0-3.0-1.33","2667","[""videos/fast_med_c15_white.mov""]","j","response","false"
"","","","","","html-keyboard-response","72","144769","0.0-3.0-0.34","null","<div style=""font-size:60px;"">+</div>","null","fixation",""
"","","","","","video-keyboard-response","73","148418","0.0-3.0-1.34","3648","[""videos/med_low_c2_white_mirror.mov""]","f","response","false"
"","","","","","html-keyboard-response","74","148920","0.0-3.0-0.35","null","<div style=""font-size:60px;"">+</div>","null","fixation",""
"","","","","","video-keyboard-response","75","152133","0.0-3.0-1.35","3212","[""videos/med_high_c5_white_mirror.mov""]","j","response","false"
"","","","","","html-keyboard-response","76","153135","0.0-3.0-0.36","null","<div style=""font-size:60px;"">+</div>","null","fixation",""
"","","","","","video-keyboard-response","77","155951","0.0-3.0-1.36","2815","[""videos/slow_low_c1_white.mov""]","j","response","false"
"","","","","","html-keyboard-response","78","156702","0.0-3.0-0.37","null","<div style=""font-size:60px;"">+</div>","null","fixation",""
"","","","","","video-keyboard-response","79","158929","0.0-3.0-1.37","2225","[""videos/fast_high_c13_white.mov""]","j","response","false"
"","","","","","html-keyboard-response","80","159931","0.0-3.0-0.38","null","<div style=""font-size:60px;"">+</div>","null","fixation",""
"","","","","","video-keyboard-response","81","165272","0.0-3.0-1.38","5340","[""videos/fast_med_c16_white.mov""]","j","response","false"
"","","","","","html-keyboard-response","82","166274","0.0-3.0-0.39","null","<div style=""font-size:60px;"">+</div>","null","fixation",""
"","","","","","video-keyboard-response","83","168505","0.0-3.0-1.39","2229","[""videos/slow_low_c2_white.mov""]","f","response","false"
"","","","","","html-keyboard-response","84","169716","0.0-3.0-2.39-0.39","1211","<p>You can take a quick break now if you need it.</p>
      <p>Press the spacebar to continue.</p>"," ","",""
"","","","","","html-keyboard-response","85","170218","0.0-3.0-0.40","null","<div style=""font-size:60px;"">+</div>","null","fixation",""
"","","","","","video-keyboard-response","86","173008","0.0-3.0-1.40","2789","[""videos/med_low_c8_white.mov""]","f","response","false"
"","","","","","html-keyboard-response","87","173509","0.0-3.0-0.41","null","<div style=""font-size:60px;"">+</div>","null","fixation",""
"","","","","","video-keyboard-response","88","175915","0.0-3.0-1.41","2405","[""videos/slow_high_c6_white_mirror.mov""]","j","response","false"
"","","","","","html-keyboard-response","89","176917","0.0-3.0-0.42","null","<div style=""font-size:60px;"">+</div>","null","fixation",""
"","","","","","video-keyboard-response","90","183725","0.0-3.0-1.42","6806","[""videos/fast_low_c17_white.mov""]","j","response","false"
"","","","","","html-keyboard-response","91","184727","0.0-3.0-0.43","null","<div style=""font-size:60px;"">+</div>","null","fixation",""
"","","","","","video-keyboard-response","92","186720","0.0-3.0-1.43","1992","[""videos/slow_med_c10_white.mov""]","j","response","false"
"","","","","","html-keyboard-response","93","187222","0.0-3.0-0.44","null","<div style=""font-size:60px;"">+</div>","null","fixation",""
"","","","","","video-keyboard-response","94","191566","0.0-3.0-1.44","4343","[""videos/med_med_c8_white_mirror.mov""]","f","response","false"
"","","","","","html-keyboard-response","95","192568","0.0-3.0-0.45","null","<div style=""font-size:60px;"">+</div>","null","fixation",""
"","","","","","video-keyboard-response","96","195352","0.0-3.0-1.45","2783","[""videos/fast_low_c14_white.mov""]","j","response","false"
"","","","","","html-keyboard-response","97","195854","0.0-3.0-0.46","null","<div style=""font-size:60px;"">+</div>","null","fixation",""
"","","","","","video-keyboard-response","98","198526","0.0-3.0-1.46","2671","[""videos/med_med_c11_white_mirror.mov""]","j","response","false"
"","","","","","html-keyboard-response","99","199527","0.0-3.0-0.47","null","<div style=""font-size:60px;"">+</div>","null","fixation",""
"","","","","","video-keyboard-response","100","201861","0.0-3.0-1.47","2333","[""videos/fast_low_c15_white_mirror.mov""]","j","response","false"
"","","","","","html-keyboard-response","101","202362","0.0-3.0-0.48","null","<div style=""font-size:60px;"">+</div>","null","fixation",""
"","","","","","video-keyboard-response","102","204024","0.0-3.0-1.48","1661","[""videos/fast_med_c11_white.mov""]","f","response","false"
"","","","","","html-keyboard-response","103","205025","0.0-3.0-0.49","null","<div style=""font-size:60px;"">+</div>","null","fixation",""
"","","","","","video-keyboard-response","104","207340","0.0-3.0-1.49","2314","[""videos/slow_low_c12_white_mirror.mov""]","j","response","false"
"","","","","","html-keyboard-response","105","208092","0.0-3.0-0.50","null","<div style=""font-size:60px;"">+</div>","null","fixation",""
"","","","","","video-keyboard-response","106","210878","0.0-3.0-1.50","2786","[""videos/slow_low_c3_white_mirror.mov""]","f","response","false"
"","","","","","html-keyboard-response","107","211380","0.0-3.0-0.51","null","<div style=""font-size:60px;"">+</div>","null","fixation",""
"","","","","","video-keyboard-response","108","213084","0.0-3.0-1.51","1703","[""videos/slow_high_c13_white_mirror.mov""]","j","response","false"
"","","","","","html-keyboard-response","109","213585","0.0-3.0-0.52","null","<div style=""font-size:60px;"">+</div>","null","fixation",""
"","","","","","video-keyboard-response","110","216506","0.0-3.0-1.52","2919","[""videos/med_high_c7_white.mov""]","j","response","false"
"","","","","","html-keyboard-response","111","217257","0.0-3.0-0.53","null","<div style=""font-size:60px;"">+</div>","null","fixation",""
"","","","","","video-keyboard-response","112","218995","0.0-3.0-1.53","1737","[""videos/fast_high_c4_white.mov""]","f","response","false"
"","","","","","html-keyboard-response","113","219497","0.0-3.0-0.54","null","<div style=""font-size:60px;"">+</div>","null","fixation",""
"","","","","","video-keyboard-response","114","221087","0.0-3.0-1.54","1589","[""videos/med_low_c16_white.mov""]","j","response","false"
"","","","","","html-keyboard-response","115","222089","0.0-3.0-0.55","null","<div style=""font-size:60px;"">+</div>","null","fixation",""
"","","","","","video-keyboard-response","116","225712","0.0-3.0-1.55","3622","[""videos/med_med_c1_white.mov""]","f","response","false"
"","","","","","html-keyboard-response","117","226714","0.0-3.0-0.56","null","<div style=""font-size:60px;"">+</div>","null","fixation",""
"","","","","","video-keyboard-response","118","232929","0.0-3.0-1.56","6213","[""videos/fast_med_c13_white_mirror.mov""]","j","response","false"
"","","","","","html-keyboard-response","119","233681","0.0-3.0-0.57","null","<div style=""font-size:60px;"">+</div>","null","fixation",""
"","","","","","video-keyboard-response","120","236423","0.0-3.0-1.57","2740","[""videos/med_high_c6_white_mirror.mov""]","f","response","false"
"","","","","","html-keyboard-response","121","237425","0.0-3.0-0.58","null","<div style=""font-size:60px;"">+</div>","null","fixation",""
"","","","","","video-keyboard-response","122","240842","0.0-3.0-1.58","3416","[""videos/slow_med_c4_white_mirror.mov""]","j","response","false"
"","","","","","html-keyboard-response","123","241344","0.0-3.0-0.59","null","<div style=""font-size:60px;"">+</div>","null","fixation",""
"","","","","","video-keyboard-response","124","243619","0.0-3.0-1.59","2274","[""videos/fast_high_c11_white_mirror.mov""]","j","response","false"
"","","","","","html-keyboard-response","125","244763","0.0-3.0-2.59-0.59","1144","<p>You can take a quick break now if you need it.</p>
      <p>Press the spacebar to continue.</p>"," ","",""
"","","","","","html-keyboard-response","126","245265","0.0-3.0-0.60","null","<div style=""font-size:60px;"">+</div>","null","fixation",""
"","","","","","video-keyboard-response","127","247169","0.0-3.0-1.60","1903","[""videos/fast_med_c6_white.mov""]","f","response","false"
"","","","","","html-keyboard-response","128","247922","0.0-3.0-0.61","null","<div style=""font-size:60px;"">+</div>","null","fixation",""
"","","","","","video-keyboard-response","129","250553","0.0-3.0-1.61","2630","[""videos/slow_high_c2_white.mov""]","f","response","false"
"","","","","","html-keyboard-response","130","251556","0.0-3.0-0.62","null","<div style=""font-size:60px;"">+</div>","null","fixation",""
"","","","","","video-keyboard-response","131","255986","0.0-3.0-1.62","4428","[""videos/med_high_c8_white_mirror.mov""]","j","response","false"
"","","","","","html-keyboard-response","132","256987","0.0-3.0-0.63","null","<div style=""font-size:60px;"">+</div>","null","fixation",""
"","","","","","video-keyboard-response","133","258957","0.0-3.0-1.63","1969","[""videos/med_high_c10_white.mov""]","j","response","false"
"","","","","","html-keyboard-response","134","259457","0.0-3.0-0.64","null","<div style=""font-size:60px;"">+</div>","null","fixation",""
"","","","","","video-keyboard-response","135","261295","0.0-3.0-1.64","1836","[""videos/slow_high_c3_white_mirror.mov""]","j","response","false"
"","","","","","html-keyboard-response","136","262124","0.0-4.0","829","<p>You can take a quick break now if you need it.</p>
      <p>Press the spacebar to continue.</p>"," ","",""
"","","","","","html-keyboard-response","137","262626","0.0-5.0-0.0","null","<div style=""font-size:60px;"">+</div>","null","fixation",""
"","","","","","video-keyboard-response","138","266519","0.0-5.0-1.0","3892","[""videos/fast_med_c14_tan_mirror.mov""]","j","response","false"
"","","","","","html-keyboard-response","139","267021","0.0-5.0-0.1","null","<div style=""font-size:60px;"">+</div>","null","fixation",""
"","","","","","video-keyboard-response","140","268905","0.0-5.0-1.1","1883","[""videos/slow_high_c4_pink_mirror.mov""]","j","response","false"
"","","","","","html-keyboard-response","141","269656","0.0-5.0-0.2","null","<div style=""font-size:60px;"">+</div>","null","fixation",""
"","","","","","video-keyboard-response","142","271654","0.0-5.0-1.2","1996","[""videos/fast_high_c11_pink.mov""]","j","response","false"
"","","","","","html-keyboard-response","143","272406","0.0-5.0-0.3","null","<div style=""font-size:60px;"">+</div>","null","fixation",""
"","","","","","video-keyboard-response","144","274742","0.0-5.0-1.3","2335","[""videos/fast_low_c16_tan.mov""]","j","response","false"
"","","","","","html-keyboard-response","145","275494","0.0-5.0-0.4","null","<div style=""font-size:60px;"">+</div>","null","fixation",""
"","","","","","video-keyboard-response","146","278213","0.0-5.0-1.4","2717","[""videos/med_high_c7_tan.mov""]","j","response","false"
"","","","","","html-keyboard-response","147","278715","0.0-5.0-0.5","null","<div style=""font-size:60px;"">+</div>","null","fixation",""
"","","","","","video-keyboard-response","148","281569","0.0-5.0-1.5","2853","[""videos/fast_high_c10_teal_mirror.mov""]","f","response","false"
"","","","","","html-keyboard-response","149","282070","0.0-5.0-0.6","null","<div style=""font-size:60px;"">+</div>","null","fixation",""
"","","","","","video-keyboard-response","150","286119","0.0-5.0-1.6","4047","[""videos/fast_med_c14_teal.mov""]","f","response","false"
"","","","","","html-keyboard-response","151","286870","0.0-5.0-0.7","null","<div style=""font-size:60px;"">+</div>","null","fixation",""
"","","","","","video-keyboard-response","152","289858","0.0-5.0-1.7","2986","[""videos/slow_med_c7_teal.mov""]","j","response","false"
"","","","","","html-keyboard-response","153","290360","0.0-5.0-0.8","null","<div style=""font-size:60px;"">+</div>","null","fixation",""
"","","","","","video-keyboard-response","154","294438","0.0-5.0-1.8","4076","[""videos/slow_low_c3_tan_mirror.mov""]","f","response","false"
"","","","","","html-keyboard-response","155","294939","0.0-5.0-0.9","null","<div style=""font-size:60px;"">+</div>","null","fixation",""
"","","","","","video-keyboard-response","156","296235","0.0-5.0-1.9","1294","[""videos/slow_high_c13_pink_mirror.mov""]","j","response","false"
"","","","","","html-keyboard-response","157","296736","0.0-5.0-0.10","null","<div style=""font-size:60px;"">+</div>","null","fixation",""
"","","","","","video-keyboard-response","158","299077","0.0-5.0-1.10","2340","[""videos/slow_med_c5_teal.mov""]","j","response","false"
"","","","","","html-keyboard-response","159","299579","0.0-5.0-0.11","null","<div style=""font-size:60px;"">+</div>","null","fixation",""
"","","","","","video-keyboard-response","160","302145","0.0-5.0-1.11","2565","[""videos/slow_low_c1_purple_mirror.mov""]","f","response","false"
"","","","","","html-keyboard-response","161","302897","0.0-5.0-0.12","null","<div style=""font-size:60px;"">+</div>","null","fixation",""
"","","","","","video-keyboard-response","162","306661","0.0-5.0-1.12","3763","[""videos/med_low_c7_pink.mov""]","f","response","false"
"","","","","","html-keyboard-response","163","307414","0.0-5.0-0.13","null","<div style=""font-size:60px;"">+</div>","null","fixation",""
"","","","","","video-keyboard-response","164","309443","0.0-5.0-1.13","2028","[""videos/med_med_c1_teal.mov""]","j","response","false"
"","","","","","html-keyboard-response","165","310195","0.0-5.0-0.14","null","<div style=""font-size:60px;"">+</div>","null","fixation",""
"","","","","","video-keyboard-response","166","311826","0.0-5.0-1.14","1630","[""videos/slow_low_c4_purple_mirror.mov""]","j","response","false"
"","","","","","html-keyboard-response","167","312733","0.0-5.0-2.14-0.14","906","<p>You can take a quick break now if you need it.</p>
      <p>Press the spacebar to continue.</p>"," ","",""
"","","","","","html-keyboard-response","168","313484","0.0-5.0-0.15","null","<div style=""font-size:60px;"">+</div>","null","fixation",""
"","","","","","video-keyboard-response","169","316194","0.0-5.0-1.15","2709","[""videos/fast_high_c8_tan.mov""]","f","response","false"
"","","","","","html-keyboard-response","170","316946","0.0-5.0-0.16","null","<div style=""font-size:60px;"">+</div>","null","fixation",""
"","","","","","video-keyboard-response","171","322705","0.0-5.0-1.16","5757","[""videos/med_med_c6_purple_mirror.mov""]","j","response","false"
"","","","","","html-keyboard-response","172","323707","0.0-5.0-0.17","null","<div style=""font-size:60px;"">+</div>","null","fixation",""
"","","","","","video-keyboard-response","173","326169","0.0-5.0-1.17","2461","[""videos/med_high_c6_teal.mov""]","f","response","false"
"","","","","","html-keyboard-response","174","326921","0.0-5.0-0.18","null","<div style=""font-size:60px;"">+</div>","null","fixation",""
"","","","","","video-keyboard-response","175","333936","0.0-5.0-1.18","7013","[""videos/fast_med_c17_purple.mov""]","j","response","false"
"","","","","","html-keyboard-response","176","334437","0.0-5.0-0.19","null","<div style=""font-size:60px;"">+</div>","null","fixation",""
"","","","","","video-keyboard-response","177","336129","0.0-5.0-1.19","1691","[""videos/med_high_c10_pink.mov""]","j","response","false"
"","","","","","html-keyboard-response","178","337131","0.0-5.0-0.20","null","<div style=""font-size:60px;"">+</div>","null","fixation",""
"","","","","","video-keyboard-response","179","338992","0.0-5.0-1.20","1859","[""videos/fast_low_c5_tan.mov""]","f","response","false"
"","","","","","html-keyboard-response","180","339745","0.0-5.0-0.21","null","<div style=""font-size:60px;"">+</div>","null","fixation",""
"","","","","","video-keyboard-response","181","342037","0.0-5.0-1.21","2291","[""videos/med_med_c9_pink_mirror.mov""]","j","response","false"
"","","","","","html-keyboard-response","182","343039","0.0-5.0-0.22","null","<div style=""font-size:60px;"">+</div>","null","fixation",""
"","","","","","video-keyboard-response","183","345331","0.0-5.0-1.22","2290","[""videos/slow_high_c2_teal_mirror.mov""]","j","response","false"
"","","","","","html-keyboard-response","184","346082","0.0-5.0-0.23","null","<div style=""font-size:60px;"">+</div>","null","fixation",""
"","","","","","video-keyboard-response","185","348813","0.0-5.0-1.23","2729","[""videos/fast_high_c4_purple.mov""]","f","response","false"
"","","","","","html-keyboard-response","186","349814","0.0-5.0-0.24","null","<div style=""font-size:60px;"">+</div>","null","fixation",""
"","","","","","video-keyboard-response","187","351493","0.0-5.0-1.24","1677","[""videos/slow_med_c5_pink_mirror.mov""]","j","response","false"
"","","","","","html-keyboard-response","188","351994","0.0-5.0-0.25","null","<div style=""font-size:60px;"">+</div>","null","fixation",""
"","","","","","video-keyboard-response","189","354428","0.0-5.0-1.25","2432","[""videos/med_low_c16_purple_mirror.mov""]","j","response","false"
"","","","","","html-keyboard-response","190","354929","0.0-5.0-0.26","null","<div style=""font-size:60px;"">+</div>","null","fixation",""
"","","","","","video-keyboard-response","191","356580","0.0-5.0-1.26","1650","[""videos/slow_high_c6_teal_mirror.mov""]","j","response","false"
"","","","","","html-keyboard-response","192","357333","0.0-5.0-0.27","null","<div style=""font-size:60px;"">+</div>","null","fixation",""
"","","","","","video-keyboard-response","193","360292","0.0-5.0-1.27","2958","[""videos/fast_low_c17_purple_mirror.mov""]","j","response","false"
"","","","","","html-keyboard-response","194","361044","0.0-5.0-0.28","null","<div style=""font-size:60px;"">+</div>","null","fixation",""
"","","","","","video-keyboard-response","195","362822","0.0-5.0-1.28","1777","[""videos/slow_med_c3_pink_mirror.mov""]","j","response","false"
"","","","","","html-keyboard-response","196","363324","0.0-5.0-0.29","null","<div style=""font-size:60px;"">+</div>","null","fixation",""
"","","","","","video-keyboard-response","197","367419","0.0-5.0-1.29","4094","[""videos/med_low_c2_teal_mirror.mov""]","f","response","false"
"","","","","","html-keyboard-response","198","367921","0.0-5.0-0.30","null","<div style=""font-size:60px;"">+</div>","null","fixation",""
"","","","","","video-keyboard-response","199","369723","0.0-5.0-1.30","1801","[""videos/slow_high_c13_teal.mov""]","j","response","false"
"","","","","","html-keyboard-response","200","370474","0.0-5.0-0.31","null","<div style=""font-size:60px;"">+</div>","null","fixation",""
"","","","","","video-keyboard-response","201","373778","0.0-5.0-1.31","3302","[""videos/med_low_c5_pink.mov""]","f","response","false"
"","","","","","html-keyboard-response","202","374531","0.0-5.0-0.32","null","<div style=""font-size:60px;"">+</div>","null","fixation",""
"","","","","","video-keyboard-response","203","376352","0.0-5.0-1.32","1820","[""videos/slow_med_c2_tan.mov""]","f","response","false"
"","","","","","html-keyboard-response","204","377354","0.0-5.0-0.33","null","<div style=""font-size:60px;"">+</div>","null","fixation",""
"","","","","","video-keyboard-response","205","380213","0.0-5.0-1.33","2858","[""videos/slow_high_c4_purple.mov""]","j","response","false"
"","","","","","html-keyboard-response","206","380715","0.0-5.0-0.34","null","<div style=""font-size:60px;"">+</div>","null","fixation",""
"","","","","","video-keyboard-response","207","382590","0.0-5.0-1.34","1873","[""videos/slow_high_c2_purple.mov""]","f","response","false"
"","","","","","html-keyboard-response","208","383640","0.0-5.0-2.34-0.34","1050","<p>You can take a quick break now if you need it.</p>
      <p>Press the spacebar to continue.</p>"," ","",""
"","","","","","html-keyboard-response","209","384393","0.0-5.0-0.35","null","<div style=""font-size:60px;"">+</div>","null","fixation",""
"","","","","","video-keyboard-response","210","386653","0.0-5.0-1.35","2259","[""videos/med_high_c13_pink.mov""]","j","response","false"
"","","","","","html-keyboard-response","211","387406","0.0-5.0-0.36","null","<div style=""font-size:60px;"">+</div>","null","fixation",""
"","","","","","video-keyboard-response","212","389748","0.0-5.0-1.36","2341","[""videos/fast_high_c15_tan.mov""]","j","response","false"
"","","","","","html-keyboard-response","213","390500","0.0-5.0-0.37","null","<div style=""font-size:60px;"">+</div>","null","fixation",""
"","","","","","video-keyboard-response","214","394521","0.0-5.0-1.37","4019","[""videos/med_med_c8_pink.mov""]","j","response","false"
"","","","","","html-keyboard-response","215","395523","0.0-5.0-0.38","null","<div style=""font-size:60px;"">+</div>","null","fixation",""
"","","","","","video-keyboard-response","216","398875","0.0-5.0-1.38","3350","[""videos/med_low_c7_teal_mirror.mov""]","j","response","false"
"","","","","","html-keyboard-response","217","399377","0.0-5.0-0.39","null","<div style=""font-size:60px;"">+</div>","null","fixation",""
"","","","","","video-keyboard-response","218","400973","0.0-5.0-1.39","1595","[""videos/slow_med_c10_teal.mov""]","j","response","false"
"","","","","","html-keyboard-response","219","401475","0.0-5.0-0.40","null","<div style=""font-size:60px;"">+</div>","null","fixation",""
"","","","","","video-keyboard-response","220","403235","0.0-5.0-1.40","1759","[""videos/fast_med_c6_purple_mirror.mov""]","f","response","false"
"","","","","","html-keyboard-response","221","403986","0.0-5.0-0.41","null","<div style=""font-size:60px;"">+</div>","null","fixation",""
"","","","","","video-keyboard-response","222","405787","0.0-5.0-1.41","1799","[""videos/med_med_c8_tan_mirror.mov""]","j","response","false"
"","","","","","html-keyboard-response","223","406789","0.0-5.0-0.42","null","<div style=""font-size:60px;"">+</div>","null","fixation",""
"","","","","","video-keyboard-response","224","408680","0.0-5.0-1.42","1890","[""videos/slow_low_c2_purple.mov""]","f","response","false"
"","","","","","html-keyboard-response","225","409432","0.0-5.0-0.43","null","<div style=""font-size:60px;"">+</div>","null","fixation",""
"","","","","","video-keyboard-response","226","413567","0.0-5.0-1.43","4133","[""videos/slow_low_c1_teal.mov""]","j","response","false"
"","","","","","html-keyboard-response","227","414319","0.0-5.0-0.44","null","<div style=""font-size:60px;"">+</div>","null","fixation",""
"","","","","","video-keyboard-response","228","420590","0.0-5.0-1.44","6270","[""videos/slow_high_c2_pink.mov""]","f","response","false"
"","","","","","html-keyboard-response","229","421592","0.0-5.0-0.45","null","<div style=""font-size:60px;"">+</div>","null","fixation",""
"","","","","","video-keyboard-response","230","424753","0.0-5.0-1.45","3160","[""videos/slow_med_c1_teal_mirror.mov""]","f","response","false"
"","","","","","html-keyboard-response","231","425755","0.0-5.0-0.46","null","<div style=""font-size:60px;"">+</div>","null","fixation",""
"","","","","","video-keyboard-response","232","428664","0.0-5.0-1.46","2908","[""videos/med_low_c8_teal_mirror.mov""]","j","response","false"
"","","","","","html-keyboard-response","233","429165","0.0-5.0-0.47","null","<div style=""font-size:60px;"">+</div>","null","fixation",""
"","","","","","video-keyboard-response","234","432198","0.0-5.0-1.47","3031","[""videos/slow_med_c2_teal_mirror.mov""]","j","response","false"
"","","","","","html-keyboard-response","235","433199","0.0-5.0-0.48","null","<div style=""font-size:60px;"">+</div>","null","fixation",""
"","","","","","video-keyboard-response","236","438219","0.0-5.0-1.48","5019","[""videos/med_high_c8_purple_mirror.mov""]","j","response","false"
"","","","","","html-keyboard-response","237","438972","0.0-5.0-0.49","null","<div style=""font-size:60px;"">+</div>","null","fixation",""
"","","","","","video-keyboard-response","238","441281","0.0-5.0-1.49","2308","[""videos/fast_high_c13_teal.mov""]","f","response","false"
"","","","","","html-keyboard-response","239","442033","0.0-5.0-0.50","null","<div style=""font-size:60px;"">+</div>","null","fixation",""
"","","","","","video-keyboard-response","240","444942","0.0-5.0-1.50","2907","[""videos/fast_high_c17_teal_mirror.mov""]","j","response","false"
"","","","","","html-keyboard-response","241","445693","0.0-5.0-0.51","null","<div style=""font-size:60px;"">+</div>","null","fixation",""
"","","","","","video-keyboard-response","242","449282","0.0-5.0-1.51","3588","[""videos/fast_low_c15_pink.mov""]","f","response","false"
"","","","","","html-keyboard-response","243","449784","0.0-5.0-0.52","null","<div style=""font-size:60px;"">+</div>","null","fixation",""
"","","","","","video-keyboard-response","244","454660","0.0-5.0-1.52","4875","[""videos/med_low_c2_purple.mov""]","f","response","false"
"","","","","","html-keyboard-response","245","455662","0.0-5.0-0.53","null","<div style=""font-size:60px;"">+</div>","null","fixation",""
"","","","","","video-keyboard-response","246","462703","0.0-5.0-1.53","7039","[""videos/med_high_c13_tan_mirror.mov""]","j","response","false"
"","","","","","html-keyboard-response","247","463455","0.0-5.0-0.54","null","<div style=""font-size:60px;"">+</div>","null","fixation",""
"","","","","","video-keyboard-response","248","466296","0.0-5.0-1.54","2840","[""videos/fast_high_c12_purple_mirror.mov""]","f","response","false"
"","","","","","html-keyboard-response","249","467056","0.0-5.0-2.54-0.54","760","<p>You can take a quick break now if you need it.</p>
      <p>Press the spacebar to continue.</p>"," ","",""
"","","","","","html-keyboard-response","250","467557","0.0-5.0-0.55","null","<div style=""font-size:60px;"">+</div>","null","fixation",""
"","","","","","video-keyboard-response","251","469770","0.0-5.0-1.55","2212","[""videos/med_med_c14_purple.mov""]","j","response","false"
"","","","","","html-keyboard-response","252","470271","0.0-5.0-0.56","null","<div style=""font-size:60px;"">+</div>","null","fixation",""
"","","","","","video-keyboard-response","253","475611","0.0-5.0-1.56","5338","[""videos/fast_low_c16_pink.mov""]","j","response","false"
"","","","","","html-keyboard-response","254","476364","0.0-5.0-0.57","null","<div style=""font-size:60px;"">+</div>","null","fixation",""
"","","","","","video-keyboard-response","255","483614","0.0-5.0-1.57","7249","[""videos/med_med_c9_teal.mov""]","j","response","false"
"","","","","","html-keyboard-response","256","484116","0.0-5.0-0.58","null","<div style=""font-size:60px;"">+</div>","null","fixation",""
"","","","","","video-keyboard-response","257","490511","0.0-5.0-1.58","6393","[""videos/med_low_c12_pink_mirror.mov""]","f","response","false"
"","","","","","html-keyboard-response","258","491262","0.0-5.0-0.59","null","<div style=""font-size:60px;"">+</div>","null","fixation",""
"","","","","","video-keyboard-response","259","495264","0.0-5.0-1.59","4000","[""videos/fast_high_c8_pink_mirror.mov""]","j","response","false"
"","","","","","html-keyboard-response","260","496016","0.0-5.0-0.60","null","<div style=""font-size:60px;"">+</div>","null","fixation",""
"","","","","","video-keyboard-response","261","498422","0.0-5.0-1.60","2404","[""videos/fast_med_c13_pink_mirror.mov""]","f","response","false"
"","","","","","html-keyboard-response","262","499173","0.0-5.0-0.61","null","<div style=""font-size:60px;"">+</div>","null","fixation",""
"","","","","","video-keyboard-response","263","500757","0.0-5.0-1.61","1581","[""videos/slow_low_c4_teal.mov""]","j","response","false"
"","","","","","html-keyboard-response","264","501259","0.0-5.0-0.62","null","<div style=""font-size:60px;"">+</div>","null","fixation",""
"","","","","","video-keyboard-response","265","503580","0.0-5.0-1.62","2320","[""videos/med_med_c6_pink.mov""]","f","response","false"
"","","","","","html-keyboard-response","266","504582","0.0-5.0-0.63","null","<div style=""font-size:60px;"">+</div>","null","fixation",""
"","","","","","video-keyboard-response","267","508823","0.0-5.0-1.63","4240","[""videos/med_low_c8_pink.mov""]","j","response","false"
"","","","","","html-keyboard-response","268","509825","0.0-5.0-0.64","null","<div style=""font-size:60px;"">+</div>","null","fixation",""
"","","","","","video-keyboard-response","269","511369","0.0-5.0-1.64","1542","[""videos/med_med_c11_tan_mirror.mov""]","j","response","false"
"","","","","","html-keyboard-response","270","512121","0.0-5.0-0.65","null","<div style=""font-size:60px;"">+</div>","null","fixation",""
"","","","","","video-keyboard-response","271","513866","0.0-5.0-1.65","1743","[""videos/slow_low_c5_purple.mov""]","j","response","false"
"","","","","","html-keyboard-response","272","514868","0.0-5.0-0.66","null","<div style=""font-size:60px;"">+</div>","null","fixation",""
"","","","","","video-keyboard-response","273","516885","0.0-5.0-1.66","2015","[""videos/med_med_c4_purple_mirror.mov""]","j","response","false"
"","","","","","html-keyboard-response","274","517636","0.0-5.0-0.67","null","<div style=""font-size:60px;"">+</div>","null","fixation",""
"","","","","","video-keyboard-response","275","519782","0.0-5.0-1.67","2145","[""videos/fast_low_c12_tan.mov""]","f","response","false"
"","","","","","html-keyboard-response","276","520284","0.0-5.0-0.68","null","<div style=""font-size:60px;"">+</div>","null","fixation",""
"","","","","","video-keyboard-response","277","524626","0.0-5.0-1.68","4341","[""videos/fast_low_c17_tan.mov""]","j","response","false"
"","","","","","html-keyboard-response","278","525128","0.0-5.0-0.69","null","<div style=""font-size:60px;"">+</div>","null","fixation",""
"","","","","","video-keyboard-response","279","529192","0.0-5.0-1.69","4062","[""videos/med_med_c14_teal_mirror.mov""]","j","response","false"
"","","","","","html-keyboard-response","280","529693","0.0-5.0-0.70","null","<div style=""font-size:60px;"">+</div>","null","fixation",""
"","","","","","video-keyboard-response","281","533155","0.0-5.0-1.70","3461","[""videos/fast_low_c12_pink_mirror.mov""]","f","response","false"
"","","","","","html-keyboard-response","282","534158","0.0-5.0-0.71","null","<div style=""font-size:60px;"">+</div>","null","fixation",""
"","","","","","video-keyboard-response","283","538440","0.0-5.0-1.71","4281","[""videos/slow_high_c3_tan.mov""]","j","response","false"
"","","","","","html-keyboard-response","284","538943","0.0-5.0-0.72","null","<div style=""font-size:60px;"">+</div>","null","fixation",""
"","","","","","video-keyboard-response","285","541019","0.0-5.0-1.72","2075","[""videos/fast_med_c15_pink_mirror.mov""]","f","response","false"
"","","","","","html-keyboard-response","286","541520","0.0-5.0-0.73","null","<div style=""font-size:60px;"">+</div>","null","fixation",""
"","","","","","video-keyboard-response","287","543686","0.0-5.0-1.73","2164","[""videos/med_low_c12_teal.mov""]","j","response","false"
"","","","","","html-keyboard-response","288","544438","0.0-5.0-0.74","null","<div style=""font-size:60px;"">+</div>","null","fixation",""
"","","","","","video-keyboard-response","289","547614","0.0-5.0-1.74","3174","[""videos/fast_low_c14_pink_mirror.mov""]","f","response","false"
"","","","","","html-keyboard-response","290","548788","0.0-5.0-2.74-0.74","1174","<p>You can take a quick break now if you need it.</p>
      <p>Press the spacebar to continue.</p>"," ","",""
"","","","","","html-keyboard-response","291","549539","0.0-5.0-0.75","null","<div style=""font-size:60px;"">+</div>","null","fixation",""
"","","","","","video-keyboard-response","292","555139","0.0-5.0-1.75","5599","[""videos/med_high_c8_teal.mov""]","j","response","false"
"","","","","","html-keyboard-response","293","555640","0.0-5.0-0.76","null","<div style=""font-size:60px;"">+</div>","null","fixation",""
"","","","","","video-keyboard-response","294","557989","0.0-5.0-1.76","2348","[""videos/slow_low_c7_purple_mirror.mov""]","j","response","false"
"","","","","","html-keyboard-response","295","558741","0.0-5.0-0.77","null","<div style=""font-size:60px;"">+</div>","null","fixation",""
"","","","","","video-keyboard-response","296","560578","0.0-5.0-1.77","1835","[""videos/slow_high_c1_tan.mov""]","f","response","false"
"","","","","","html-keyboard-response","297","561580","0.0-5.0-0.78","null","<div style=""font-size:60px;"">+</div>","null","fixation",""
"","","","","","video-keyboard-response","298","564217","0.0-5.0-1.78","2636","[""videos/med_med_c7_teal_mirror.mov""]","f","response","false"
"","","","","","html-keyboard-response","299","564969","0.0-5.0-0.79","null","<div style=""font-size:60px;"">+</div>","null","fixation",""
"","","","","","video-keyboard-response","300","568026","0.0-5.0-1.79","3055","[""videos/fast_high_c11_tan_mirror.mov""]","j","response","false"
"","","","","","html-keyboard-response","301","568777","0.0-5.0-0.80","null","<div style=""font-size:60px;"">+</div>","null","fixation",""
"","","","","","video-keyboard-response","302","570474","0.0-5.0-1.80","1695","[""videos/med_high_c6_tan_mirror.mov""]","f","response","false"
"","","","","","html-keyboard-response","303","571226","0.0-5.0-0.81","null","<div style=""font-size:60px;"">+</div>","null","fixation",""
"","","","","","video-keyboard-response","304","573828","0.0-5.0-1.81","2601","[""videos/med_high_c3_purple.mov""]","f","response","false"
"","","","","","html-keyboard-response","305","574580","0.0-5.0-0.82","null","<div style=""font-size:60px;"">+</div>","null","fixation",""
"","","","","","video-keyboard-response","306","576836","0.0-5.0-1.82","2255","[""videos/fast_high_c12_teal.mov""]","f","response","false"
"","","","","","html-keyboard-response","307","577588","0.0-5.0-0.83","null","<div style=""font-size:60px;"">+</div>","null","fixation",""
"","","","","","video-keyboard-response","308","582160","0.0-5.0-1.83","4571","[""videos/fast_med_c15_tan.mov""]","f","response","false"
"","","","","","html-keyboard-response","309","582913","0.0-5.0-0.84","null","<div style=""font-size:60px;"">+</div>","null","fixation",""
"","","","","","video-keyboard-response","310","586309","0.0-5.0-1.84","3395","[""videos/med_high_c5_pink.mov""]","j","response","false"
"","","","","","html-keyboard-response","311","587311","0.0-5.0-0.85","null","<div style=""font-size:60px;"">+</div>","null","fixation",""
"","","","","","video-keyboard-response","312","589344","0.0-5.0-1.85","2032","[""videos/med_low_c9_tan.mov""]","f","response","false"
"","","","","","html-keyboard-response","313","590096","0.0-5.0-0.86","null","<div style=""font-size:60px;"">+</div>","null","fixation",""
"","","","","","video-keyboard-response","314","591652","0.0-5.0-1.86","1554","[""videos/fast_low_c5_pink_mirror.mov""]","f","response","false"
"","","","","","html-keyboard-response","315","592154","0.0-5.0-0.87","null","<div style=""font-size:60px;"">+</div>","null","fixation",""
"","","","","","video-keyboard-response","316","593733","0.0-5.0-1.87","1578","[""videos/med_med_c4_tan.mov""]","f","response","false"
"","","","","","html-keyboard-response","317","594485","0.0-5.0-0.88","null","<div style=""font-size:60px;"">+</div>","null","fixation",""
"","","","","","video-keyboard-response","318","595899","0.0-5.0-1.88","1413","[""videos/slow_med_c7_tan_mirror.mov""]","j","response","false"
"","","","","","html-keyboard-response","319","596401","0.0-5.0-0.89","null","<div style=""font-size:60px;"">+</div>","null","fixation",""
"","","","","","video-keyboard-response","320","598207","0.0-5.0-1.89","1804","[""videos/fast_high_c10_tan.mov""]","j","response","false"
"","","","","","html-keyboard-response","321","598959","0.0-5.0-0.90","null","<div style=""font-size:60px;"">+</div>","null","fixation",""
"","","","","","video-keyboard-response","322","600652","0.0-5.0-1.90","1691","[""videos/slow_low_c2_pink_mirror.mov""]","f","response","false"
"","","","","","html-keyboard-response","323","601654","0.0-5.0-0.91","null","<div style=""font-size:60px;"">+</div>","null","fixation",""
"","","","","","video-keyboard-response","324","603439","0.0-5.0-1.91","1784","[""videos/fast_med_c11_purple.mov""]","j","response","false"
"","","","","","html-keyboard-response","325","604441","0.0-5.0-0.92","null","<div style=""font-size:60px;"">+</div>","null","fixation",""
"","","","","","video-keyboard-response","326","606079","0.0-5.0-1.92","1636","[""videos/med_high_c10_purple_mirror.mov""]","j","response","false"
"","","","","","html-keyboard-response","327","606580","0.0-5.0-0.93","null","<div style=""font-size:60px;"">+</div>","null","fixation",""
"","","","","","video-keyboard-response","328","609936","0.0-5.0-1.93","3354","[""videos/fast_low_c16_teal_mirror.mov""]","j","response","false"
"","","","","","html-keyboard-response","329","610688","0.0-5.0-0.94","null","<div style=""font-size:60px;"">+</div>","null","fixation",""
"","","","","","video-keyboard-response","330","614675","0.0-5.0-1.94","3985","[""videos/fast_low_c16_purple_mirror.mov""]","j","response","false"
"","","","","","html-keyboard-response","331","615779","0.0-5.0-2.94-0.94","1104","<p>You can take a quick break now if you need it.</p>
      <p>Press the spacebar to continue.</p>"," ","",""
"","","","","","html-keyboard-response","332","616281","0.0-5.0-0.95","null","<div style=""font-size:60px;"">+</div>","null","fixation",""
"","","","","","video-keyboard-response","333","618106","0.0-5.0-1.95","1824","[""videos/fast_med_c6_tan.mov""]","f","response","false"
"","","","","","html-keyboard-response","334","619108","0.0-5.0-0.96","null","<div style=""font-size:60px;"">+</div>","null","fixation",""
"","","","","","video-keyboard-response","335","621576","0.0-5.0-1.96","2467","[""videos/fast_low_c15_tan_mirror.mov""]","j","response","false"
"","","","","","html-keyboard-response","336","622579","0.0-5.0-0.97","null","<div style=""font-size:60px;"">+</div>","null","fixation",""
"","","","","","video-keyboard-response","337","624515","0.0-5.0-1.97","1935","[""videos/slow_low_c2_tan.mov""]","f","response","false"
"","","","","","html-keyboard-response","338","625517","0.0-5.0-0.98","null","<div style=""font-size:60px;"">+</div>","null","fixation",""
"","","","","","video-keyboard-response","339","629892","0.0-5.0-1.98","4374","[""videos/fast_med_c15_purple.mov""]","j","response","false"
"","","","","","html-keyboard-response","340","630394","0.0-5.0-0.99","null","<div style=""font-size:60px;"">+</div>","null","fixation",""
"","","","","","video-keyboard-response","341","632637","0.0-5.0-1.99","2242","[""videos/slow_med_c3_tan_mirror.mov""]","f","response","false"
"","","","","","html-keyboard-response","342","633139","0.0-5.0-0.100","null","<div style=""font-size:60px;"">+</div>","null","fixation",""
"","","","","","video-keyboard-response","343","635108","0.0-5.0-1.100","1968","[""videos/slow_high_c2_tan_mirror.mov""]","f","response","false"
"","","","","","html-keyboard-response","344","635860","0.0-5.0-0.101","null","<div style=""font-size:60px;"">+</div>","null","fixation",""
"","","","","","video-keyboard-response","345","638826","0.0-5.0-1.101","2964","[""videos/fast_low_c17_teal_mirror.mov""]","j","response","false"
"","","","","","html-keyboard-response","346","639578","0.0-5.0-0.102","null","<div style=""font-size:60px;"">+</div>","null","fixation",""
"","","","","","video-keyboard-response","347","641510","0.0-5.0-1.102","1930","[""videos/slow_high_c3_teal_mirror.mov""]","j","response","false"
"","","","","","html-keyboard-response","348","642512","0.0-5.0-0.103","null","<div style=""font-size:60px;"">+</div>","null","fixation",""
"","","","","","video-keyboard-response","349","648482","0.0-5.0-1.103","5969","[""videos/slow_low_c3_purple_mirror.mov""]","j","response","false"
"","","","","","html-keyboard-response","350","649235","0.0-5.0-0.104","null","<div style=""font-size:60px;"">+</div>","null","fixation",""
"","","","","","video-keyboard-response","351","651280","0.0-5.0-1.104","2044","[""videos/med_med_c7_tan.mov""]","f","response","false"
"","","","","","html-keyboard-response","352","651782","0.0-5.0-0.105","null","<div style=""font-size:60px;"">+</div>","null","fixation",""
"","","","","","video-keyboard-response","353","653467","0.0-5.0-1.105","1683","[""videos/slow_low_c12_pink.mov""]","j","response","false"
"","","","","","html-keyboard-response","354","654217","0.0-5.0-0.106","null","<div style=""font-size:60px;"">+</div>","null","fixation",""
"","","","","","video-keyboard-response","355","657021","0.0-5.0-1.106","2802","[""videos/fast_low_c14_teal.mov""]","j","response","false"
"","","","","","html-keyboard-response","356","657523","0.0-5.0-0.107","null","<div style=""font-size:60px;"">+</div>","null","fixation",""
"","","","","","video-keyboard-response","357","659986","0.0-5.0-1.107","2462","[""videos/fast_high_c4_tan_mirror.mov""]","f","response","false"
"","","","","","html-keyboard-response","358","660988","0.0-5.0-0.108","null","<div style=""font-size:60px;"">+</div>","null","fixation",""
"","","","","","video-keyboard-response","359","662638","0.0-5.0-1.108","1649","[""videos/med_med_c11_teal.mov""]","j","response","false"
"","","","","","html-keyboard-response","360","663391","0.0-5.0-0.109","null","<div style=""font-size:60px;"">+</div>","null","fixation",""
"","","","","","video-keyboard-response","361","666044","0.0-5.0-1.109","2652","[""videos/med_high_c7_teal_mirror.mov""]","f","response","false"
"","","","","","html-keyboard-response","362","666796","0.0-5.0-0.110","null","<div style=""font-size:60px;"">+</div>","null","fixation",""
"","","","","","video-keyboard-response","363","669375","0.0-5.0-1.110","2577","[""videos/fast_med_c13_teal.mov""]","j","response","false"
"","","","","","html-keyboard-response","364","669876","0.0-5.0-0.111","null","<div style=""font-size:60px;"">+</div>","null","fixation",""
"","","","","","video-keyboard-response","365","671675","0.0-5.0-1.111","1797","[""videos/slow_med_c2_pink_mirror.mov""]","f","response","false"
"","","","","","html-keyboard-response","366","672678","0.0-5.0-0.112","null","<div style=""font-size:60px;"">+</div>","null","fixation",""
"","","","","","video-keyboard-response","367","675632","0.0-5.0-1.112","2953","[""videos/fast_med_c16_teal_mirror.mov""]","j","response","false"
"","","","","","html-keyboard-response","368","676635","0.0-5.0-0.113","null","<div style=""font-size:60px;"">+</div>","null","fixation",""
"","","","","","video-keyboard-response","369","678276","0.0-5.0-1.113","1640","[""videos/fast_med_c11_teal_mirror.mov""]","f","response","false"
"","","","","","html-keyboard-response","370","679279","0.0-5.0-0.114","null","<div style=""font-size:60px;"">+</div>","null","fixation",""
"","","","","","video-keyboard-response","371","680788","0.0-5.0-1.114","1507","[""videos/slow_low_c5_teal_mirror.mov""]","j","response","false"
"","","","","","html-keyboard-response","372","681744","0.0-5.0-2.114-0.114","956","<p>You can take a quick break now if you need it.</p>
      <p>Press the spacebar to continue.</p>"," ","",""
"","","","","","html-keyboard-response","373","682246","0.0-5.0-0.115","null","<div style=""font-size:60px;"">+</div>","null","fixation",""
"","","","","","video-keyboard-response","374","683956","0.0-5.0-1.115","1709","[""videos/slow_med_c3_purple.mov""]","f","response","false"
"","","","","","html-keyboard-response","375","684708","0.0-5.0-0.116","null","<div style=""font-size:60px;"">+</div>","null","fixation",""
"","","","","","video-keyboard-response","376","686124","0.0-5.0-1.116","1415","[""videos/slow_high_c6_purple.mov""]","j","response","false"
"","","","","","html-keyboard-response","377","686625","0.0-5.0-0.117","null","<div style=""font-size:60px;"">+</div>","null","fixation",""
"","","","","","video-keyboard-response","378","689093","0.0-5.0-1.117","2466","[""videos/fast_high_c17_tan.mov""]","j","response","false"
"","","","","","html-keyboard-response","379","689846","0.0-5.0-0.118","null","<div style=""font-size:60px;"">+</div>","null","fixation",""
"","","","","","video-keyboard-response","380","691964","0.0-5.0-1.118","2117","[""videos/med_low_c9_purple_mirror.mov""]","j","response","false"
"","","","","","html-keyboard-response","381","692716","0.0-5.0-0.119","null","<div style=""font-size:60px;"">+</div>","null","fixation",""
"","","","","","video-keyboard-response","382","695878","0.0-5.0-1.119","3161","[""videos/fast_low_c17_pink.mov""]","j","response","false"
"","","","","","html-keyboard-response","383","696380","0.0-5.0-0.120","null","<div style=""font-size:60px;"">+</div>","null","fixation",""
"","","","","","video-keyboard-response","384","698217","0.0-5.0-1.120","1836","[""videos/med_high_c3_tan_mirror.mov""]","f","response","false"
"","","","","","html-keyboard-response","385","699219","0.0-5.0-0.121","null","<div style=""font-size:60px;"">+</div>","null","fixation",""
"","","","","","video-keyboard-response","386","701502","0.0-5.0-1.121","2282","[""videos/med_low_c10_purple_mirror.mov""]","j","response","false"
"","","","","","html-keyboard-response","387","702004","0.0-5.0-0.122","null","<div style=""font-size:60px;"">+</div>","null","fixation",""
"","","","","","video-keyboard-response","388","705930","0.0-5.0-1.122","3925","[""videos/slow_med_c4_teal.mov""]","j","response","false"
"","","","","","html-keyboard-response","389","706432","0.0-5.0-0.123","null","<div style=""font-size:60px;"">+</div>","null","fixation",""
"","","","","","video-keyboard-response","390","707973","0.0-5.0-1.123","1539","[""videos/slow_low_c12_teal_mirror.mov""]","j","response","false"
"","","","","","html-keyboard-response","391","708475","0.0-5.0-0.124","null","<div style=""font-size:60px;"">+</div>","null","fixation",""
"","","","","","video-keyboard-response","392","710303","0.0-5.0-1.124","1827","[""videos/slow_low_c3_teal.mov""]","j","response","false"
"","","","","","html-keyboard-response","393","710805","0.0-5.0-0.125","null","<div style=""font-size:60px;"">+</div>","null","fixation",""
"","","","","","video-keyboard-response","394","714430","0.0-5.0-1.125","3624","[""videos/slow_high_c1_teal_mirror.mov""]","f","response","false"
"","","","","","html-keyboard-response","395","715183","0.0-5.0-0.126","null","<div style=""font-size:60px;"">+</div>","null","fixation",""
"","","","","","video-keyboard-response","396","718560","0.0-5.0-1.126","3376","[""videos/fast_med_c17_tan_mirror.mov""]","j","response","false"
"","","","","","html-keyboard-response","397","719313","0.0-5.0-0.127","null","<div style=""font-size:60px;"">+</div>","null","fixation",""
"","","","","","video-keyboard-response","398","722078","0.0-5.0-1.127","2764","[""videos/med_high_c5_teal_mirror.mov""]","j","response","false"
"","","","","","html-keyboard-response","399","722830","0.0-5.0-0.128","null","<div style=""font-size:60px;"">+</div>","null","fixation",""
"","","","","","video-keyboard-response","400","727646","0.0-5.0-1.128","4814","[""videos/fast_high_c15_teal_mirror.mov""]","f","response","false"
"","","","","","html-keyboard-response","401","728147","0.0-5.0-0.129","null","<div style=""font-size:60px;"">+</div>","null","fixation",""
"","","","","","video-keyboard-response","402","730111","0.0-5.0-1.129","1962","[""videos/med_med_c1_pink_mirror.mov""]","f","response","false"
"","","","","","html-keyboard-response","403","731112","0.0-5.0-0.130","null","<div style=""font-size:60px;"">+</div>","null","fixation",""
"","","","","","video-keyboard-response","404","732726","0.0-5.0-1.130","1613","[""videos/med_high_c1_teal_mirror.mov""]","f","response","false"
"","","","","","html-keyboard-response","405","733228","0.0-5.0-0.131","null","<div style=""font-size:60px;"">+</div>","null","fixation",""
"","","","","","video-keyboard-response","406","735295","0.0-5.0-1.131","2066","[""videos/med_low_c16_tan.mov""]","j","response","false"
"","","","","","html-keyboard-response","407","736296","0.0-5.0-0.132","null","<div style=""font-size:60px;"">+</div>","null","fixation",""
"","","","","","video-keyboard-response","408","740018","0.0-5.0-1.132","3721","[""videos/slow_med_c4_purple_mirror.mov""]","f","response","false"
"","","","","","html-keyboard-response","409","740521","0.0-5.0-0.133","null","<div style=""font-size:60px;"">+</div>","null","fixation",""
"","","","","","video-keyboard-response","410","742790","0.0-5.0-1.133","2268","[""videos/med_low_c5_purple_mirror.mov""]","j","response","false"
"","","","","","html-keyboard-response","411","743541","0.0-5.0-0.134","null","<div style=""font-size:60px;"">+</div>","null","fixation",""
"","","","","","video-keyboard-response","412","745449","0.0-5.0-1.134","1906","[""videos/med_high_c1_pink.mov""]","j","response","false"
"","","","","","html-keyboard-response","413","746387","0.0-5.0-2.134-0.134","938","<p>You can take a quick break now if you need it.</p>
      <p>Press the spacebar to continue.</p>"," ","",""
"","","","","","html-keyboard-response","414","746889","0.0-5.0-0.135","null","<div style=""font-size:60px;"">+</div>","null","fixation",""
"","","","","","video-keyboard-response","415","748612","0.0-5.0-1.135","1721","[""videos/fast_high_c13_pink_mirror.mov""]","j","response","false"
"","","","","","html-keyboard-response","416","749614","0.0-5.0-0.136","null","<div style=""font-size:60px;"">+</div>","null","fixation",""
"","","","","","video-keyboard-response","417","751231","0.0-5.0-1.136","1615","[""videos/slow_low_c7_pink.mov""]","j","response","false"
"","","","","","html-keyboard-response","418","752232","0.0-5.0-0.137","null","<div style=""font-size:60px;"">+</div>","null","fixation",""
"","","","","","video-keyboard-response","419","753702","0.0-5.0-1.137","1468","[""videos/slow_med_c10_purple_mirror.mov""]","j","response","false"
"","","","","","html-keyboard-response","420","754453","0.0-5.0-0.138","null","<div style=""font-size:60px;"">+</div>","null","fixation",""
"","","","","","video-keyboard-response","421","756751","0.0-5.0-1.138","2296","[""videos/fast_med_c16_purple.mov""]","f","response","false"
"","","","","","html-keyboard-response","422","757503","0.0-5.0-0.139","null","<div style=""font-size:60px;"">+</div>","null","fixation",""
"","","","","","video-keyboard-response","423","759972","0.0-5.0-1.139","2468","[""videos/fast_med_c16_pink_mirror.mov""]","j","response","false"
"","","","","","html-keyboard-response","424","760473","0.0-5.0-0.140","null","<div style=""font-size:60px;"">+</div>","null","fixation",""
"","","","","","video-keyboard-response","425","762147","0.0-5.0-1.140","1672","[""videos/slow_med_c1_purple.mov""]","f","response","false"
"","","","","","html-keyboard-response","426","763148","0.0-5.0-0.141","null","<div style=""font-size:60px;"">+</div>","null","fixation",""
"","","","","","video-keyboard-response","427","764951","0.0-5.0-1.141","1802","[""videos/slow_high_c1_purple_mirror.mov""]","f","response","false"
"","","","","","html-keyboard-response","428","765453","0.0-5.0-0.142","null","<div style=""font-size:60px;"">+</div>","null","fixation",""
"","","","","","video-keyboard-response","429","766868","0.0-5.0-1.142","1413","[""videos/slow_high_c1_pink.mov""]","f","response","false"
"","","","","","html-keyboard-response","430","767870","0.0-5.0-0.143","null","<div style=""font-size:60px;"">+</div>","null","fixation",""
"","","","","","video-keyboard-response","431","770605","0.0-5.0-1.143","2734","[""videos/med_low_c10_pink.mov""]","j","response","false"
"","","","","","html-keyboard-response","432","771757","0.0-6.0","1151","<p>You can take a quick break now if you need it.</p>
      <p>Press the spacebar to continue.</p>"," ","",""
"","","","","","html-keyboard-response","433","772509","0.0-7.0-0.0","null","<div style=""font-size:60px;"">+</div>","null","fixation",""
"","","","","","video-keyboard-response","434","776169","0.0-7.0-1.0","3658","[""videos/med_low_c10_white.mov""]","j","response","false"
"","","","","","html-keyboard-response","435","777171","0.0-7.0-0.1","null","<div style=""font-size:60px;"">+</div>","null","fixation",""
"","","","","","video-keyboard-response","436","779817","0.0-7.0-1.1","2644","[""videos/fast_high_c11_white_mirror.mov""]","j","response","false"
"","","","","","html-keyboard-response","437","780569","0.0-7.0-0.2","null","<div style=""font-size:60px;"">+</div>","null","fixation",""
"","","","","","video-keyboard-response","438","782295","0.0-7.0-1.2","1724","[""videos/fast_med_c11_white.mov""]","f","response","false"
"","","","","","html-keyboard-response","439","783297","0.0-7.0-0.3","null","<div style=""font-size:60px;"">+</div>","null","fixation",""
"","","","","","video-keyboard-response","440","786365","0.0-7.0-1.3","3067","[""videos/med_high_c8_white_mirror.mov""]","f","response","false"
"","","","","","html-keyboard-response","441","786867","0.0-7.0-0.4","null","<div style=""font-size:60px;"">+</div>","null","fixation",""
"","","","","","video-keyboard-response","442","788324","0.0-7.0-1.4","1456","[""videos/slow_high_c1_white_mirror.mov""]","f","response","false"
"","","","","","html-keyboard-response","443","789076","0.0-7.0-0.5","null","<div style=""font-size:60px;"">+</div>","null","fixation",""
"","","","","","video-keyboard-response","444","791473","0.0-7.0-1.5","2396","[""videos/fast_low_c15_white.mov""]","j","response","false"
"","","","","","html-keyboard-response","445","792475","0.0-7.0-0.6","null","<div style=""font-size:60px;"">+</div>","null","fixation",""
"","","","","","video-keyboard-response","446","800026","0.0-7.0-1.6","7550","[""videos/fast_med_c14_white_mirror.mov""]","j","response","false"
"","","","","","html-keyboard-response","447","801028","0.0-7.0-0.7","null","<div style=""font-size:60px;"">+</div>","null","fixation",""
"","","","","","video-keyboard-response","448","802524","0.0-7.0-1.7","1494","[""videos/fast_high_c12_white.mov""]","j","response","false"
"","","","","","html-keyboard-response","449","803275","0.0-7.0-0.8","null","<div style=""font-size:60px;"">+</div>","null","fixation",""
"","","","","","video-keyboard-response","450","805202","0.0-7.0-1.8","1926","[""videos/fast_med_c13_white.mov""]","j","response","false"
"","","","","","html-keyboard-response","451","805953","0.0-7.0-0.9","null","<div style=""font-size:60px;"">+</div>","null","fixation",""
"","","","","","video-keyboard-response","452","807359","0.0-7.0-1.9","1404","[""videos/med_med_c14_white_mirror.mov""]","j","response","false"
"","","","","","html-keyboard-response","453","808361","0.0-7.0-0.10","null","<div style=""font-size:60px;"">+</div>","null","fixation",""
"","","","","","video-keyboard-response","454","809639","0.0-7.0-1.10","1277","[""videos/slow_high_c13_white.mov""]","j","response","false"
"","","","","","html-keyboard-response","455","821553","0.0-7.0-2.10-0.10","11914","<p>You can take a quick break now if you need it.</p>
      <p>Press the spacebar to continue.</p>"," ","",""
"","","","","","html-keyboard-response","456","822054","0.0-7.0-0.11","null","<div style=""font-size:60px;"">+</div>","null","fixation",""
"","","","","","video-keyboard-response","457","824603","0.0-7.0-1.11","2547","[""videos/fast_low_c12_white_mirror.mov""]","j","response","false"
"","","","","","html-keyboard-response","458","825604","0.0-7.0-0.12","null","<div style=""font-size:60px;"">+</div>","null","fixation",""
"","","","","","video-keyboard-response","459","827297","0.0-7.0-1.12","1691","[""videos/med_high_c1_white_mirror.mov""]","f","response","false"
"","","","","","html-keyboard-response","460","828299","0.0-7.0-0.13","null","<div style=""font-size:60px;"">+</div>","null","fixation",""
"","","","","","video-keyboard-response","461","829772","0.0-7.0-1.13","1472","[""videos/med_med_c1_white_mirror.mov""]","f","response","false"
"","","","","","html-keyboard-response","462","830524","0.0-7.0-0.14","null","<div style=""font-size:60px;"">+</div>","null","fixation",""
"","","","","","video-keyboard-response","463","832804","0.0-7.0-1.14","2279","[""videos/med_med_c8_white.mov""]","j","response","false"
"","","","","","html-keyboard-response","464","833805","0.0-7.0-0.15","null","<div style=""font-size:60px;"">+</div>","null","fixation",""
"","","","","","video-keyboard-response","465","835312","0.0-7.0-1.15","1506","[""videos/fast_high_c17_white_mirror.mov""]","j","response","false"
"","","","","","html-keyboard-response","466","835813","0.0-7.0-0.16","null","<div style=""font-size:60px;"">+</div>","null","fixation",""
"","","","","","video-keyboard-response","467","837343","0.0-7.0-1.16","1528","[""videos/slow_med_c7_white_mirror.mov""]","j","response","false"
"","","","","","html-keyboard-response","468","837844","0.0-7.0-0.17","null","<div style=""font-size:60px;"">+</div>","null","fixation",""
"","","","","","video-keyboard-response","469","840272","0.0-7.0-1.17","2426","[""videos/slow_high_c2_white_mirror.mov""]","j","response","false"
"","","","","","html-keyboard-response","470","840774","0.0-7.0-0.18","null","<div style=""font-size:60px;"">+</div>","null","fixation",""
"","","","","","video-keyboard-response","471","842696","0.0-7.0-1.18","1921","[""videos/fast_med_c15_white_mirror.mov""]","j","response","false"
"","","","","","html-keyboard-response","472","843197","0.0-7.0-0.19","null","<div style=""font-size:60px;"">+</div>","null","fixation",""
"","","","","","video-keyboard-response","473","846877","0.0-7.0-1.19","3678","[""videos/slow_low_c1_white.mov""]","j","response","false"
"","","","","","html-keyboard-response","474","847379","0.0-7.0-0.20","null","<div style=""font-size:60px;"">+</div>","null","fixation",""
"","","","","","video-keyboard-response","475","849040","0.0-7.0-1.20","1659","[""videos/slow_high_c3_white.mov""]","j","response","false"
"","","","","","html-keyboard-response","476","850041","0.0-7.0-0.21","null","<div style=""font-size:60px;"">+</div>","null","fixation",""
"","","","","","video-keyboard-response","477","851402","0.0-7.0-1.21","1360","[""videos/slow_med_c5_white.mov""]","j","response","false"
"","","","","","html-keyboard-response","478","852403","0.0-7.0-0.22","null","<div style=""font-size:60px;"">+</div>","null","fixation",""
"","","","","","video-keyboard-response","479","854768","0.0-7.0-1.22","2364","[""videos/med_high_c13_white.mov""]","j","response","false"
"","","","","","html-keyboard-response","480","855769","0.0-7.0-0.23","null","<div style=""font-size:60px;"">+</div>","null","fixation",""
"","","","","","video-keyboard-response","481","857670","0.0-7.0-1.23","1899","[""videos/med_high_c6_white_mirror.mov""]","f","response","false"
"","","","","","html-keyboard-response","482","858422","0.0-7.0-0.24","null","<div style=""font-size:60px;"">+</div>","null","fixation",""
"","","","","","video-keyboard-response","483","862411","0.0-7.0-1.24","3988","[""videos/fast_low_c16_white_mirror.mov""]","j","response","false"
"","","","","","html-keyboard-response","484","863163","0.0-7.0-0.25","null","<div style=""font-size:60px;"">+</div>","null","fixation",""
"","","","","","video-keyboard-response","485","864977","0.0-7.0-1.25","1812","[""videos/slow_med_c4_white.mov""]","j","response","false"
"","","","","","html-keyboard-response","486","865729","0.0-7.0-0.26","null","<div style=""font-size:60px;"">+</div>","null","fixation",""
"","","","","","video-keyboard-response","487","867466","0.0-7.0-1.26","1736","[""videos/slow_low_c4_white.mov""]","j","response","false"
"","","","","","html-keyboard-response","488","868469","0.0-7.0-0.27","null","<div style=""font-size:60px;"">+</div>","null","fixation",""
"","","","","","video-keyboard-response","489","870305","0.0-7.0-1.27","1836","[""videos/fast_high_c4_white.mov""]","f","response","false"
"","","","","","html-keyboard-response","490","870807","0.0-7.0-0.28","null","<div style=""font-size:60px;"">+</div>","null","fixation",""
"","","","","","video-keyboard-response","491","872842","0.0-7.0-1.28","2034","[""videos/med_med_c6_white_mirror.mov""]","j","response","false"
"","","","","","html-keyboard-response","492","873594","0.0-7.0-0.29","null","<div style=""font-size:60px;"">+</div>","null","fixation",""
"","","","","","video-keyboard-response","493","875083","0.0-7.0-1.29","1487","[""videos/fast_high_c15_white.mov""]","j","response","false"
"","","","","","html-keyboard-response","494","875835","0.0-7.0-0.30","null","<div style=""font-size:60px;"">+</div>","null","fixation",""
"","","","","","video-keyboard-response","495","879992","0.0-7.0-1.30","4155","[""videos/med_low_c2_white_mirror.mov""]","f","response","false"
"","","","","","html-keyboard-response","496","880812","0.0-7.0-2.30-0.30","820","<p>You can take a quick break now if you need it.</p>
      <p>Press the spacebar to continue.</p>"," ","",""
"","","","","","html-keyboard-response","497","881314","0.0-7.0-0.31","null","<div style=""font-size:60px;"">+</div>","null","fixation",""
"","","","","","video-keyboard-response","498","883138","0.0-7.0-1.31","1822","[""videos/slow_low_c2_white.mov""]","f","response","false"
"","","","","","html-keyboard-response","499","883890","0.0-7.0-0.32","null","<div style=""font-size:60px;"">+</div>","null","fixation",""
"","","","","","video-keyboard-response","500","885431","0.0-7.0-1.32","1539","[""videos/fast_high_c8_white.mov""]","f","response","false"
"","","","","","html-keyboard-response","501","885933","0.0-7.0-0.33","null","<div style=""font-size:60px;"">+</div>","null","fixation",""
"","","","","","video-keyboard-response","502","887484","0.0-7.0-1.33","1550","[""videos/med_low_c7_white.mov""]","f","response","false"
"","","","","","html-keyboard-response","503","887985","0.0-7.0-0.34","null","<div style=""font-size:60px;"">+</div>","null","fixation",""
"","","","","","video-keyboard-response","504","889413","0.0-7.0-1.34","1427","[""videos/slow_med_c3_white.mov""]","f","response","false"
"","","","","","html-keyboard-response","505","890416","0.0-7.0-0.35","null","<div style=""font-size:60px;"">+</div>","null","fixation",""
"","","","","","video-keyboard-response","506","893501","0.0-7.0-1.35","3084","[""videos/med_high_c7_white.mov""]","j","response","false"
"","","","","","html-keyboard-response","507","894003","0.0-7.0-0.36","null","<div style=""font-size:60px;"">+</div>","null","fixation",""
"","","","","","video-keyboard-response","508","895490","0.0-7.0-1.36","1486","[""videos/fast_low_c5_white.mov""]","f","response","false"
"","","","","","html-keyboard-response","509","895991","0.0-7.0-0.37","null","<div style=""font-size:60px;"">+</div>","null","fixation",""
"","","","","","video-keyboard-response","510","898374","0.0-7.0-1.37","2381","[""videos/fast_low_c14_white_mirror.mov""]","f","response","false"
"","","","","","html-keyboard-response","511","899376","0.0-7.0-0.38","null","<div style=""font-size:60px;"">+</div>","null","fixation",""
"","","","","","video-keyboard-response","512","902060","0.0-7.0-1.38","2683","[""videos/med_med_c7_white.mov""]","f","response","false"
"","","","","","html-keyboard-response","513","903062","0.0-7.0-0.39","null","<div style=""font-size:60px;"">+</div>","null","fixation",""
"","","","","","video-keyboard-response","514","906508","0.0-7.0-1.39","3445","[""videos/slow_high_c4_white.mov""]","f","response","false"
"","","","","","html-keyboard-response","515","907259","0.0-7.0-0.40","null","<div style=""font-size:60px;"">+</div>","null","fixation",""
"","","","","","video-keyboard-response","516","909077","0.0-7.0-1.40","1816","[""videos/slow_med_c2_white_mirror.mov""]","f","response","false"
"","","","","","html-keyboard-response","517","909579","0.0-7.0-0.41","null","<div style=""font-size:60px;"">+</div>","null","fixation",""
"","","","","","video-keyboard-response","518","911696","0.0-7.0-1.41","2116","[""videos/slow_low_c3_white.mov""]","j","response","false"
"","","","","","html-keyboard-response","519","912698","0.0-7.0-0.42","null","<div style=""font-size:60px;"">+</div>","null","fixation",""
"","","","","","video-keyboard-response","520","914455","0.0-7.0-1.42","1756","[""videos/fast_med_c17_white.mov""]","j","response","false"
"","","","","","html-keyboard-response","521","915206","0.0-7.0-0.43","null","<div style=""font-size:60px;"">+</div>","null","fixation",""
"","","","","","video-keyboard-response","522","917026","0.0-7.0-1.43","1819","[""videos/slow_high_c6_white_mirror.mov""]","j","response","false"
"","","","","","html-keyboard-response","523","918028","0.0-7.0-0.44","null","<div style=""font-size:60px;"">+</div>","null","fixation",""
"","","","","","video-keyboard-response","524","919849","0.0-7.0-1.44","1819","[""videos/med_low_c5_white.mov""]","j","response","false"
"","","","","","html-keyboard-response","525","920350","0.0-7.0-0.45","null","<div style=""font-size:60px;"">+</div>","null","fixation",""
"","","","","","video-keyboard-response","526","922198","0.0-7.0-1.45","1846","[""videos/med_med_c4_white_mirror.mov""]","j","response","false"
"","","","","","html-keyboard-response","527","922700","0.0-7.0-0.46","null","<div style=""font-size:60px;"">+</div>","null","fixation",""
"","","","","","video-keyboard-response","528","924579","0.0-7.0-1.46","1878","[""videos/fast_low_c17_white.mov""]","j","response","false"
"","","","","","html-keyboard-response","529","925331","0.0-7.0-0.47","null","<div style=""font-size:60px;"">+</div>","null","fixation",""
"","","","","","video-keyboard-response","530","927423","0.0-7.0-1.47","2091","[""videos/med_low_c8_white_mirror.mov""]","f","response","false"
"","","","","","html-keyboard-response","531","927925","0.0-7.0-0.48","null","<div style=""font-size:60px;"">+</div>","null","fixation",""
"","","","","","video-keyboard-response","532","929364","0.0-7.0-1.48","1438","[""videos/med_med_c11_white.mov""]","j","response","false"
"","","","","","html-keyboard-response","533","930366","0.0-7.0-0.49","null","<div style=""font-size:60px;"">+</div>","null","fixation",""
"","","","","","video-keyboard-response","534","932577","0.0-7.0-1.49","2210","[""videos/fast_med_c6_white_mirror.mov""]","f","response","false"
"","","","","","html-keyboard-response","535","933329","0.0-7.0-0.50","null","<div style=""font-size:60px;"">+</div>","null","fixation",""
"","","","","","video-keyboard-response","536","935840","0.0-7.0-1.50","2510","[""videos/med_high_c5_white.mov""]","f","response","false"
"","","","","","html-keyboard-response","537","937549","0.0-7.0-2.50-0.50","1709","<p>You can take a quick break now if you need it.</p>
      <p>Press the spacebar to continue.</p>"," ","",""
"","","","","","html-keyboard-response","538","938051","0.0-7.0-0.51","null","<div style=""font-size:60px;"">+</div>","null","fixation",""
"","","","","","video-keyboard-response","539","940998","0.0-7.0-1.51","2946","[""videos/fast_high_c13_white_mirror.mov""]","j","response","false"
"","","","","","html-keyboard-response","540","941999","0.0-7.0-0.52","null","<div style=""font-size:60px;"">+</div>","null","fixation",""
"","","","","","video-keyboard-response","541","943612","0.0-7.0-1.52","1612","[""videos/slow_low_c5_white_mirror.mov""]","j","response","false"
"","","","","","html-keyboard-response","542","944113","0.0-7.0-0.53","null","<div style=""font-size:60px;"">+</div>","null","fixation",""
"","","","","","video-keyboard-response","543","945925","0.0-7.0-1.53","1810","[""videos/slow_med_c1_white_mirror.mov""]","f","response","false"
"","","","","","html-keyboard-response","544","946677","0.0-7.0-0.54","null","<div style=""font-size:60px;"">+</div>","null","fixation",""
"","","","","","video-keyboard-response","545","948335","0.0-7.0-1.54","1657","[""videos/slow_low_c12_white_mirror.mov""]","j","response","false"
"","","","","","html-keyboard-response","546","949086","0.0-7.0-0.55","null","<div style=""font-size:60px;"">+</div>","null","fixation",""
"","","","","","video-keyboard-response","547","951123","0.0-7.0-1.55","2035","[""videos/med_med_c9_white.mov""]","j","response","false"
"","","","","","html-keyboard-response","548","951875","0.0-7.0-0.56","null","<div style=""font-size:60px;"">+</div>","null","fixation",""
"","","","","","video-keyboard-response","549","954541","0.0-7.0-1.56","2665","[""videos/med_low_c16_white.mov""]","j","response","false"
"","","","","","html-keyboard-response","550","955544","0.0-7.0-0.57","null","<div style=""font-size:60px;"">+</div>","null","fixation",""
"","","","","","video-keyboard-response","551","957164","0.0-7.0-1.57","1619","[""videos/med_high_c10_white.mov""]","j","response","false"
"","","","","","html-keyboard-response","552","957917","0.0-7.0-0.58","null","<div style=""font-size:60px;"">+</div>","null","fixation",""
"","","","","","video-keyboard-response","553","960062","0.0-7.0-1.58","2144","[""videos/fast_high_c10_white_mirror.mov""]","j","response","false"
"","","","","","html-keyboard-response","554","960563","0.0-7.0-0.59","null","<div style=""font-size:60px;"">+</div>","null","fixation",""
"","","","","","video-keyboard-response","555","969255","0.0-7.0-1.59","8691","[""videos/med_low_c9_white_mirror.mov""]","j","response","false"
"","","","","","html-keyboard-response","556","970258","0.0-7.0-0.60","null","<div style=""font-size:60px;"">+</div>","null","fixation",""
"","","","","","video-keyboard-response","557","971905","0.0-7.0-1.60","1646","[""videos/med_high_c3_white_mirror.mov""]","f","response","false"
"","","","","","html-keyboard-response","558","972658","0.0-7.0-0.61","null","<div style=""font-size:60px;"">+</div>","null","fixation",""
"","","","","","video-keyboard-response","559","974918","0.0-7.0-1.61","2259","[""videos/slow_low_c7_white_mirror.mov""]","j","response","false"
"","","","","","html-keyboard-response","560","975920","0.0-7.0-0.62","null","<div style=""font-size:60px;"">+</div>","null","fixation",""
"","","","","","video-keyboard-response","561","980406","0.0-7.0-1.62","4485","[""videos/fast_med_c16_white.mov""]","j","response","false"
"","","","","","html-keyboard-response","562","981158","0.0-7.0-0.63","null","<div style=""font-size:60px;"">+</div>","null","fixation",""
"","","","","","video-keyboard-response","563","982446","0.0-7.0-1.63","1286","[""videos/slow_med_c10_white.mov""]","j","response","false"
"","","","","","html-keyboard-response","564","983447","0.0-7.0-0.64","null","<div style=""font-size:60px;"">+</div>","null","fixation",""
"","","","","","video-keyboard-response","565","986345","0.0-7.0-1.64","2896","[""videos/med_low_c12_white_mirror.mov""]","j","response","false"
"","","","","","html-keyboard-response","566","988161","0.0-8.0","1815","<p>Thank you for completing the experiment.</p>"," ","",""
