"success","timeout","failed_images","failed_audio","failed_video","trial_type","trial_index","time_elapsed","internal_node_id","rt","stimulus","response","task","test_trial"
"true","false","[]","[]","[]","preload","0","1006","0.0-0.0","","","","",""
"","","","","","html-keyboard-response","1","204207","0.0-1.0","203196","Welcome to the experiment. Press any key to begin.","arrowright","",""
"","","","","","html-keyboard-response","2","263329","0.0-2.0","59121","
        <p>In this experiment, you will be shown short movies containing two objects. One of the objects will be moving toward the other.</p>
        <p>In these movies, the moving object either collides with the stationary object, or it comes to a stop before reaching the stationary object.
          However, you will be shown a clipped version of the movie that does not reveal the ending.</p> 
        <p>Please watch each clip carefully. Then predict whether or not the two objects will collide later on in the video.</p>
        <p>Press the <b>""F""</b> key for <b>yes</b>, the objects will collide.</p> 
        <p>Press the <b>""J""</b> key for <b>no</b>, the objects will not collide.</p>
        <p>Press any key to start.</p>
      ","arrowright","",""
"","","","","","html-keyboard-response","3","265584","0.0-3.0-0.0","null","<div style=""font-size:60px;"">+</div>","null","fixation",""
"","","","","","video-keyboard-response","4","267565","0.0-3.0-1.0","1979","[""videos/fast_low_c16_white.mov""]","f","response","false"
"","","","","","html-keyboard-response","5","268318","0.0-3.0-0.1","null","<div style=""font-size:60px;"">+</div>","null","fixation",""
"","","","","","video-keyboard-response","6","270584","0.0-3.0-1.1","2265","[""videos/slow_med_c3_white_mirror.mov""]","f","response","false"
"","","","","","html-keyboard-response","7","271085","0.0-3.0-0.2","null","<div style=""font-size:60px;"">+</div>","null","fixation",""
"","","","","","video-keyboard-response","8","272759","0.0-3.0-1.2","1673","[""videos/slow_high_c2_white.mov""]","f","response","false"
"","","","","","html-keyboard-response","9","273761","0.0-3.0-0.3","null","<div style=""font-size:60px;"">+</div>","null","fixation",""
"","","","","","video-keyboard-response","10","275354","0.0-3.0-1.3","1591","[""videos/fast_low_c12_white_mirror.mov""]","f","response","false"
"","","","","","html-keyboard-response","11","276106","0.0-3.0-0.4","null","<div style=""font-size:60px;"">+</div>","null","fixation",""
"","","","","","video-keyboard-response","12","278064","0.0-3.0-1.4","1956","[""videos/slow_med_c10_white.mov""]","j","response","false"
"","","","","","html-keyboard-response","13","278817","0.0-3.0-0.5","null","<div style=""font-size:60px;"">+</div>","null","fixation",""
"","","","","","video-keyboard-response","14","280700","0.0-3.0-1.5","1882","[""videos/med_low_c12_white.mov""]","f","response","false"
"","","","","","html-keyboard-response","15","281703","0.0-3.0-0.6","null","<div style=""font-size:60px;"">+</div>","null","fixation",""
"","","","","","video-keyboard-response","16","283019","0.0-3.0-1.6","1314","[""videos/slow_low_c5_white_mirror.mov""]","f","response","false"
"","","","","","html-keyboard-response","17","283520","0.0-3.0-0.7","null","<div style=""font-size:60px;"">+</div>","null","fixation",""
"","","","","","video-keyboard-response","18","284569","0.0-3.0-1.7","1048","[""videos/slow_med_c4_white.mov""]","f","response","false"
"","","","","","html-keyboard-response","19","285321","0.0-3.0-0.8","null","<div style=""font-size:60px;"">+</div>","null","fixation",""
"","","","","","video-keyboard-response","20","286250","0.0-3.0-1.8","927","[""videos/fast_high_c13_white.mov""]","f","response","false"
"","","","","","html-keyboard-response","21","287001","0.0-3.0-0.9","null","<div style=""font-size:60px;"">+</div>","null","fixation",""
"","","","","","video-keyboard-response","22","288043","0.0-3.0-1.9","1040","[""videos/med_high_c8_white.mov""]","f","response","false"
"","","","","","html-keyboard-response","23","288795","0.0-3.0-0.10","null","<div style=""font-size:60px;"">+</div>","null","fixation",""
"","","","","","video-keyboard-response","24","290049","0.0-3.0-1.10","1253","[""videos/fast_low_c17_white_mirror.mov""]","f","response","false"
"","","","","","html-keyboard-response","25","290801","0.0-3.0-0.11","null","<div style=""font-size:60px;"">+</div>","null","fixation",""
"","","","","","video-keyboard-response","26","292137","0.0-3.0-1.11","1335","[""videos/med_med_c1_white.mov""]","f","response","false"
"","","","","","html-keyboard-response","27","292639","0.0-3.0-0.12","null","<div style=""font-size:60px;"">+</div>","null","fixation",""
"","","","","","video-keyboard-response","28","293715","0.0-3.0-1.12","1075","[""videos/fast_med_c13_white.mov""]","f","response","false"
"","","","","","html-keyboard-response","29","294717","0.0-3.0-0.13","null","<div style=""font-size:60px;"">+</div>","null","fixation",""
"","","","","","video-keyboard-response","30","296628","0.0-3.0-1.13","1910","[""videos/fast_high_c10_white.mov""]","f","response","false"
"","","","","","html-keyboard-response","31","297380","0.0-3.0-0.14","null","<div style=""font-size:60px;"">+</div>","null","fixation",""
"","","","","","video-keyboard-response","32","298758","0.0-3.0-1.14","1376","[""videos/fast_high_c11_white.mov""]","f","response","false"
"","","","","","html-keyboard-response","33","299260","0.0-3.0-0.15","null","<div style=""font-size:60px;"">+</div>","null","fixation",""
"","","","","","video-keyboard-response","34","300523","0.0-3.0-1.15","1262","[""videos/fast_med_c16_white_mirror.mov""]","f","response","false"
"","","","","","html-keyboard-response","35","301025","0.0-3.0-0.16","null","<div style=""font-size:60px;"">+</div>","null","fixation",""
"","","","","","video-keyboard-response","36","302089","0.0-3.0-1.16","1063","[""videos/med_low_c7_white_mirror.mov""]","f","response","false"
"","","","","","html-keyboard-response","37","302841","0.0-3.0-0.17","null","<div style=""font-size:60px;"">+</div>","null","fixation",""
"","","","","","video-keyboard-response","38","303892","0.0-3.0-1.17","1050","[""videos/fast_med_c6_white.mov""]","f","response","false"
"","","","","","html-keyboard-response","39","304393","0.0-3.0-0.18","null","<div style=""font-size:60px;"">+</div>","null","fixation",""
"","","","","","video-keyboard-response","40","305670","0.0-3.0-1.18","1275","[""videos/med_low_c8_white.mov""]","f","response","false"
"","","","","","html-keyboard-response","41","306422","0.0-3.0-0.19","null","<div style=""font-size:60px;"">+</div>","null","fixation",""
"","","","","","video-keyboard-response","42","307668","0.0-3.0-1.19","1245","[""videos/med_high_c10_white_mirror.mov""]","f","response","false"
"","","","","","html-keyboard-response","43","310255","0.0-3.0-2.19-0.19","2586","<p>You can take a quick break now if you need it.</p>
      <p>Press the spacebar to continue.</p>"," ","",""
"","","","","","html-keyboard-response","44","311006","0.0-3.0-0.20","null","<div style=""font-size:60px;"">+</div>","null","fixation",""
"","","","","","video-keyboard-response","45","312840","0.0-3.0-1.20","1832","[""videos/med_med_c9_white.mov""]","f","response","false"
"","","","","","html-keyboard-response","46","313842","0.0-3.0-0.21","null","<div style=""font-size:60px;"">+</div>","null","fixation",""
"","","","","","video-keyboard-response","47","315118","0.0-3.0-1.21","1275","[""videos/slow_med_c1_white_mirror.mov""]","f","response","false"
"","","","","","html-keyboard-response","48","316120","0.0-3.0-0.22","null","<div style=""font-size:60px;"">+</div>","null","fixation",""
"","","","","","video-keyboard-response","49","317661","0.0-3.0-1.22","1539","[""videos/med_low_c16_white.mov""]","f","response","false"
"","","","","","html-keyboard-response","50","318663","0.0-3.0-0.23","null","<div style=""font-size:60px;"">+</div>","null","fixation",""
"","","","","","video-keyboard-response","51","319788","0.0-3.0-1.23","1123","[""videos/med_high_c6_white_mirror.mov""]","f","response","false"
"","","","","","html-keyboard-response","52","320540","0.0-3.0-0.24","null","<div style=""font-size:60px;"">+</div>","null","fixation",""
"","","","","","video-keyboard-response","53","321885","0.0-3.0-1.24","1344","[""videos/med_high_c1_white_mirror.mov""]","f","response","false"
"","","","","","html-keyboard-response","54","322886","0.0-3.0-0.25","null","<div style=""font-size:60px;"">+</div>","null","fixation",""
"","","","","","video-keyboard-response","55","324479","0.0-3.0-1.25","1591","[""videos/fast_high_c12_white_mirror.mov""]","f","response","false"
"","","","","","html-keyboard-response","56","324981","0.0-3.0-0.26","null","<div style=""font-size:60px;"">+</div>","null","fixation",""
"","","","","","video-keyboard-response","57","326427","0.0-3.0-1.26","1445","[""videos/med_high_c7_white_mirror.mov""]","f","response","false"
"","","","","","html-keyboard-response","58","327179","0.0-3.0-0.27","null","<div style=""font-size:60px;"">+</div>","null","fixation",""
"","","","","","video-keyboard-response","59","328346","0.0-3.0-1.27","1166","[""videos/slow_low_c3_white.mov""]","f","response","false"
"","","","","","html-keyboard-response","60","329348","0.0-3.0-0.28","null","<div style=""font-size:60px;"">+</div>","null","fixation",""
"","","","","","video-keyboard-response","61","330619","0.0-3.0-1.28","1269","[""videos/med_low_c2_white_mirror.mov""]","f","response","false"
"","","","","","html-keyboard-response","62","331121","0.0-3.0-0.29","null","<div style=""font-size:60px;"">+</div>","null","fixation",""
"","","","","","video-keyboard-response","63","332479","0.0-3.0-1.29","1357","[""videos/med_med_c6_white.mov""]","f","response","false"
"","","","","","html-keyboard-response","64","333231","0.0-3.0-0.30","null","<div style=""font-size:60px;"">+</div>","null","fixation",""
"","","","","","video-keyboard-response","65","334448","0.0-3.0-1.30","1217","[""videos/fast_med_c11_white_mirror.mov""]","f","response","false"
"","","","","","html-keyboard-response","66","334950","0.0-3.0-0.31","null","<div style=""font-size:60px;"">+</div>","null","fixation",""
"","","","","","video-keyboard-response","67","336633","0.0-3.0-1.31","1681","[""videos/slow_med_c7_white_mirror.mov""]","j","response","false"
"","","","","","html-keyboard-response","68","337385","0.0-3.0-0.32","null","<div style=""font-size:60px;"">+</div>","null","fixation",""
"","","","","","video-keyboard-response","69","339173","0.0-3.0-1.32","1787","[""videos/fast_low_c15_white_mirror.mov""]","f","response","false"
"","","","","","html-keyboard-response","70","339675","0.0-3.0-0.33","null","<div style=""font-size:60px;"">+</div>","null","fixation",""
"","","","","","video-keyboard-response","71","341077","0.0-3.0-1.33","1401","[""videos/med_high_c5_white.mov""]","f","response","false"
"","","","","","html-keyboard-response","72","342079","0.0-3.0-0.34","null","<div style=""font-size:60px;"">+</div>","null","fixation",""
"","","","","","video-keyboard-response","73","348027","0.0-3.0-1.34","5947","[""videos/med_low_c9_white_mirror.mov""]","j","response","false"
"","","","","","html-keyboard-response","74","348780","0.0-3.0-0.35","null","<div style=""font-size:60px;"">+</div>","null","fixation",""
"","","","","","video-keyboard-response","75","350071","0.0-3.0-1.35","1290","[""videos/slow_high_c3_white_mirror.mov""]","f","response","false"
"","","","","","html-keyboard-response","76","351073","0.0-3.0-0.36","null","<div style=""font-size:60px;"">+</div>","null","fixation",""
"","","","","","video-keyboard-response","77","352333","0.0-3.0-1.36","1258","[""videos/fast_low_c5_white.mov""]","f","response","false"
"","","","","","html-keyboard-response","78","352835","0.0-3.0-0.37","null","<div style=""font-size:60px;"">+</div>","null","fixation",""
"","","","","","video-keyboard-response","79","354053","0.0-3.0-1.37","1217","[""videos/slow_med_c2_white.mov""]","f","response","false"
"","","","","","html-keyboard-response","80","354555","0.0-3.0-0.38","null","<div style=""font-size:60px;"">+</div>","null","fixation",""
"","","","","","video-keyboard-response","81","355809","0.0-3.0-1.38","1253","[""videos/slow_high_c1_white.mov""]","f","response","false"
"","","","","","html-keyboard-response","82","356560","0.0-3.0-0.39","null","<div style=""font-size:60px;"">+</div>","null","fixation",""
"","","","","","video-keyboard-response","83","359991","0.0-3.0-1.39","3429","[""videos/med_low_c10_white_mirror.mov""]","f","response","false"
"","","","","","html-keyboard-response","84","361547","0.0-3.0-2.39-0.39","1556","<p>You can take a quick break now if you need it.</p>
      <p>Press the spacebar to continue.</p>"," ","",""
"","","","","","html-keyboard-response","85","362300","0.0-3.0-0.40","null","<div style=""font-size:60px;"">+</div>","null","fixation",""
"","","","","","video-keyboard-response","86","369235","0.0-3.0-1.40","6934","[""videos/slow_low_c12_white.mov""]","f","response","false"
"","","","","","html-keyboard-response","87","370237","0.0-3.0-0.41","null","<div style=""font-size:60px;"">+</div>","null","fixation",""
"","","","","","video-keyboard-response","88","371459","0.0-3.0-1.41","1220","[""videos/slow_low_c1_white_mirror.mov""]","f","response","false"
"","","","","","html-keyboard-response","89","371961","0.0-3.0-0.42","null","<div style=""font-size:60px;"">+</div>","null","fixation",""
"","","","","","video-keyboard-response","90","373146","0.0-3.0-1.42","1184","[""videos/med_med_c11_white_mirror.mov""]","f","response","false"
"","","","","","html-keyboard-response","91","374148","0.0-3.0-0.43","null","<div style=""font-size:60px;"">+</div>","null","fixation",""
"","","","","","video-keyboard-response","92","375246","0.0-3.0-1.43","1097","[""videos/med_low_c5_white.mov""]","f","response","false"
"","","","","","html-keyboard-response","93","375998","0.0-3.0-0.44","null","<div style=""font-size:60px;"">+</div>","null","fixation",""
"","","","","","video-keyboard-response","94","377209","0.0-3.0-1.44","1210","[""videos/slow_low_c7_white.mov""]","f","response","false"
"","","","","","html-keyboard-response","95","378212","0.0-3.0-0.45","null","<div style=""font-size:60px;"">+</div>","null","fixation",""
"","","","","","video-keyboard-response","96","379242","0.0-3.0-1.45","1029","[""videos/fast_med_c14_white_mirror.mov""]","f","response","false"
"","","","","","html-keyboard-response","97","380244","0.0-3.0-0.46","null","<div style=""font-size:60px;"">+</div>","null","fixation",""
"","","","","","video-keyboard-response","98","381818","0.0-3.0-1.46","1573","[""videos/med_med_c4_white.mov""]","f","response","false"
"","","","","","html-keyboard-response","99","382320","0.0-3.0-0.47","null","<div style=""font-size:60px;"">+</div>","null","fixation",""
"","","","","","video-keyboard-response","100","383864","0.0-3.0-1.47","1542","[""videos/slow_low_c2_white.mov""]","f","response","false"
"","","","","","html-keyboard-response","101","384365","0.0-3.0-0.48","null","<div style=""font-size:60px;"">+</div>","null","fixation",""
"","","","","","video-keyboard-response","102","386549","0.0-3.0-1.48","2183","[""videos/med_med_c14_white_mirror.mov""]","f","response","false"
"","","","","","html-keyboard-response","103","387302","0.0-3.0-0.49","null","<div style=""font-size:60px;"">+</div>","null","fixation",""
"","","","","","video-keyboard-response","104","388804","0.0-3.0-1.49","1500","[""videos/med_high_c13_white.mov""]","f","response","false"
"","","","","","html-keyboard-response","105","389555","0.0-3.0-0.50","null","<div style=""font-size:60px;"">+</div>","null","fixation",""
"","","","","","video-keyboard-response","106","391345","0.0-3.0-1.50","1789","[""videos/slow_med_c5_white.mov""]","j","response","false"
"","","","","","html-keyboard-response","107","392347","0.0-3.0-0.51","null","<div style=""font-size:60px;"">+</div>","null","fixation",""
"","","","","","video-keyboard-response","108","394072","0.0-3.0-1.51","1724","[""videos/fast_med_c15_white.mov""]","f","response","false"
"","","","","","html-keyboard-response","109","395075","0.0-3.0-0.52","null","<div style=""font-size:60px;"">+</div>","null","fixation",""
"","","","","","video-keyboard-response","110","396748","0.0-3.0-1.52","1672","[""videos/fast_high_c8_white_mirror.mov""]","f","response","false"
"","","","","","html-keyboard-response","111","397500","0.0-3.0-0.53","null","<div style=""font-size:60px;"">+</div>","null","fixation",""
"","","","","","video-keyboard-response","112","399138","0.0-3.0-1.53","1637","[""videos/fast_low_c14_white.mov""]","f","response","false"
"","","","","","html-keyboard-response","113","400140","0.0-3.0-0.54","null","<div style=""font-size:60px;"">+</div>","null","fixation",""
"","","","","","video-keyboard-response","114","401694","0.0-3.0-1.54","1553","[""videos/med_high_c3_white.mov""]","f","response","false"
"","","","","","html-keyboard-response","115","402196","0.0-3.0-0.55","null","<div style=""font-size:60px;"">+</div>","null","fixation",""
"","","","","","video-keyboard-response","116","403658","0.0-3.0-1.55","1460","[""videos/fast_high_c4_white_mirror.mov""]","f","response","false"
"","","","","","html-keyboard-response","117","404158","0.0-3.0-0.56","null","<div style=""font-size:60px;"">+</div>","null","fixation",""
"","","","","","video-keyboard-response","118","406231","0.0-3.0-1.56","2071","[""videos/med_med_c7_white_mirror.mov""]","f","response","false"
"","","","","","html-keyboard-response","119","407233","0.0-3.0-0.57","null","<div style=""font-size:60px;"">+</div>","null","fixation",""
"","","","","","video-keyboard-response","120","413345","0.0-3.0-1.57","6110","[""videos/fast_high_c17_white.mov""]","j","response","false"
"","","","","","html-keyboard-response","121","414097","0.0-3.0-0.58","null","<div style=""font-size:60px;"">+</div>","null","fixation",""
"","","","","","video-keyboard-response","122","415565","0.0-3.0-1.58","1467","[""videos/fast_med_c17_white.mov""]","f","response","false"
"","","","","","html-keyboard-response","123","416316","0.0-3.0-0.59","null","<div style=""font-size:60px;"">+</div>","null","fixation",""
"","","","","","video-keyboard-response","124","418107","0.0-3.0-1.59","1790","[""videos/med_med_c8_white_mirror.mov""]","j","response","false"
"","","","","","html-keyboard-response","125","419311","0.0-3.0-2.59-0.59","1203","<p>You can take a quick break now if you need it.</p>
      <p>Press the spacebar to continue.</p>"," ","",""
"","","","","","html-keyboard-response","126","420063","0.0-3.0-0.60","null","<div style=""font-size:60px;"">+</div>","null","fixation",""
"","","","","","video-keyboard-response","127","421753","0.0-3.0-1.60","1689","[""videos/slow_high_c4_white_mirror.mov""]","j","response","false"
"","","","","","html-keyboard-response","128","422755","0.0-3.0-0.61","null","<div style=""font-size:60px;"">+</div>","null","fixation",""
"","","","","","video-keyboard-response","129","424374","0.0-3.0-1.61","1618","[""videos/fast_high_c15_white_mirror.mov""]","j","response","false"
"","","","","","html-keyboard-response","130","425126","0.0-3.0-0.62","null","<div style=""font-size:60px;"">+</div>","null","fixation",""
"","","","","","video-keyboard-response","131","426678","0.0-3.0-1.62","1550","[""videos/slow_high_c6_white_mirror.mov""]","j","response","false"
"","","","","","html-keyboard-response","132","427430","0.0-3.0-0.63","null","<div style=""font-size:60px;"">+</div>","null","fixation",""
"","","","","","video-keyboard-response","133","428925","0.0-3.0-1.63","1495","[""videos/slow_low_c4_white_mirror.mov""]","f","response","false"
"","","","","","html-keyboard-response","134","429427","0.0-3.0-0.64","null","<div style=""font-size:60px;"">+</div>","null","fixation",""
"","","","","","video-keyboard-response","135","430669","0.0-3.0-1.64","1240","[""videos/slow_high_c13_white.mov""]","j","response","false"
"","","","","","html-keyboard-response","136","431687","0.0-4.0","1018","<p>You can take a quick break now if you need it.</p>
      <p>Press the spacebar to continue.</p>"," ","",""
"","","","","","html-keyboard-response","137","432440","0.0-5.0-0.0","null","<div style=""font-size:60px;"">+</div>","null","fixation",""
"","","","","","video-keyboard-response","138","434263","0.0-5.0-1.0","1822","[""videos/med_med_c1_pink_mirror.mov""]","f","response","false"
"","","","","","html-keyboard-response","139","435265","0.0-5.0-0.1","null","<div style=""font-size:60px;"">+</div>","null","fixation",""
"","","","","","video-keyboard-response","140","436863","0.0-5.0-1.1","1596","[""videos/slow_high_c1_tan.mov""]","f","response","false"
"","","","","","html-keyboard-response","141","437365","0.0-5.0-0.2","null","<div style=""font-size:60px;"">+</div>","null","fixation",""
"","","","","","video-keyboard-response","142","438782","0.0-5.0-1.2","1416","[""videos/fast_low_c5_purple_mirror.mov""]","f","response","false"
"","","","","","html-keyboard-response","143","439784","0.0-5.0-0.3","null","<div style=""font-size:60px;"">+</div>","null","fixation",""
"","","","","","video-keyboard-response","144","441014","0.0-5.0-1.3","1229","[""videos/slow_low_c2_teal_mirror.mov""]","f","response","false"
"","","","","","html-keyboard-response","145","441766","0.0-5.0-0.4","null","<div style=""font-size:60px;"">+</div>","null","fixation",""
"","","","","","video-keyboard-response","146","442969","0.0-5.0-1.4","1202","[""videos/slow_high_c1_pink.mov""]","f","response","false"
"","","","","","html-keyboard-response","147","443472","0.0-5.0-0.5","null","<div style=""font-size:60px;"">+</div>","null","fixation",""
"","","","","","video-keyboard-response","148","444759","0.0-5.0-1.5","1286","[""videos/slow_high_c2_tan.mov""]","f","response","false"
"","","","","","html-keyboard-response","149","445761","0.0-5.0-0.6","null","<div style=""font-size:60px;"">+</div>","null","fixation",""
"","","","","","video-keyboard-response","150","447067","0.0-5.0-1.6","1304","[""videos/fast_low_c14_tan_mirror.mov""]","f","response","false"
"","","","","","html-keyboard-response","151","447568","0.0-5.0-0.7","null","<div style=""font-size:60px;"">+</div>","null","fixation",""
"","","","","","video-keyboard-response","152","449288","0.0-5.0-1.7","1718","[""videos/fast_low_c15_tan_mirror.mov""]","f","response","false"
"","","","","","html-keyboard-response","153","450040","0.0-5.0-0.8","null","<div style=""font-size:60px;"">+</div>","null","fixation",""
"","","","","","video-keyboard-response","154","451218","0.0-5.0-1.8","1176","[""videos/slow_high_c4_pink.mov""]","f","response","false"
"","","","","","html-keyboard-response","155","452220","0.0-5.0-0.9","null","<div style=""font-size:60px;"">+</div>","null","fixation",""
"","","","","","video-keyboard-response","156","453344","0.0-5.0-1.9","1123","[""videos/med_med_c4_pink_mirror.mov""]","f","response","false"
"","","","","","html-keyboard-response","157","454096","0.0-5.0-0.10","null","<div style=""font-size:60px;"">+</div>","null","fixation",""
"","","","","","video-keyboard-response","158","455341","0.0-5.0-1.10","1244","[""videos/med_high_c8_pink_mirror.mov""]","f","response","false"
"","","","","","html-keyboard-response","159","455843","0.0-5.0-0.11","null","<div style=""font-size:60px;"">+</div>","null","fixation",""
"","","","","","video-keyboard-response","160","456852","0.0-5.0-1.11","1008","[""videos/slow_med_c4_teal_mirror.mov""]","f","response","false"
"","","","","","html-keyboard-response","161","457854","0.0-5.0-0.12","null","<div style=""font-size:60px;"">+</div>","null","fixation",""
"","","","","","video-keyboard-response","162","458942","0.0-5.0-1.12","1087","[""videos/fast_med_c14_pink.mov""]","f","response","false"
"","","","","","html-keyboard-response","163","459944","0.0-5.0-0.13","null","<div style=""font-size:60px;"">+</div>","null","fixation",""
"","","","","","video-keyboard-response","164","463429","0.0-5.0-1.13","3483","[""videos/med_med_c8_purple.mov""]","f","response","false"
"","","","","","html-keyboard-response","165","463930","0.0-5.0-0.14","null","<div style=""font-size:60px;"">+</div>","null","fixation",""
"","","","","","video-keyboard-response","166","465260","0.0-5.0-1.14","1328","[""videos/fast_high_c4_purple_mirror.mov""]","f","response","false"
"","","","","","html-keyboard-response","167","466457","0.0-5.0-2.14-0.14","1197","<p>You can take a quick break now if you need it.</p>
      <p>Press the spacebar to continue.</p>"," ","",""
"","","","","","html-keyboard-response","168","466959","0.0-5.0-0.15","null","<div style=""font-size:60px;"">+</div>","null","fixation",""
"","","","","","video-keyboard-response","169","469044","0.0-5.0-1.15","2083","[""videos/slow_low_c12_pink.mov""]","j","response","false"
"","","","","","html-keyboard-response","170","469796","0.0-5.0-0.16","null","<div style=""font-size:60px;"">+</div>","null","fixation",""
"","","","","","video-keyboard-response","171","470967","0.0-5.0-1.16","1170","[""videos/fast_high_c8_teal.mov""]","f","response","false"
"","","","","","html-keyboard-response","172","471970","0.0-5.0-0.17","null","<div style=""font-size:60px;"">+</div>","null","fixation",""
"","","","","","video-keyboard-response","173","473041","0.0-5.0-1.17","1069","[""videos/fast_high_c10_pink_mirror.mov""]","f","response","false"
"","","","","","html-keyboard-response","174","474042","0.0-5.0-0.18","null","<div style=""font-size:60px;"">+</div>","null","fixation",""
"","","","","","video-keyboard-response","175","475074","0.0-5.0-1.18","1030","[""videos/med_med_c6_tan_mirror.mov""]","f","response","false"
"","","","","","html-keyboard-response","176","475575","0.0-5.0-0.19","null","<div style=""font-size:60px;"">+</div>","null","fixation",""
"","","","","","video-keyboard-response","177","478825","0.0-5.0-1.19","3248","[""videos/med_high_c13_pink.mov""]","f","response","false"
"","","","","","html-keyboard-response","178","479577","0.0-5.0-0.20","null","<div style=""font-size:60px;"">+</div>","null","fixation",""
"","","","","","video-keyboard-response","179","480658","0.0-5.0-1.20","1079","[""videos/fast_high_c15_pink.mov""]","f","response","false"
"","","","","","html-keyboard-response","180","481410","0.0-5.0-0.21","null","<div style=""font-size:60px;"">+</div>","null","fixation",""
"","","","","","video-keyboard-response","181","482994","0.0-5.0-1.21","1583","[""videos/slow_low_c5_purple.mov""]","j","response","false"
"","","","","","html-keyboard-response","182","483996","0.0-5.0-0.22","null","<div style=""font-size:60px;"">+</div>","null","fixation",""
"","","","","","video-keyboard-response","183","485505","0.0-5.0-1.22","1508","[""videos/fast_med_c16_teal.mov""]","f","response","false"
"","","","","","html-keyboard-response","184","486007","0.0-5.0-0.23","null","<div style=""font-size:60px;"">+</div>","null","fixation",""
"","","","","","video-keyboard-response","185","487666","0.0-5.0-1.23","1658","[""videos/slow_med_c5_pink_mirror.mov""]","j","response","false"
"","","","","","html-keyboard-response","186","488418","0.0-5.0-0.24","null","<div style=""font-size:60px;"">+</div>","null","fixation",""
"","","","","","video-keyboard-response","187","489726","0.0-5.0-1.24","1307","[""videos/med_med_c14_purple.mov""]","j","response","false"
"","","","","","html-keyboard-response","188","490227","0.0-5.0-0.25","null","<div style=""font-size:60px;"">+</div>","null","fixation",""
"","","","","","video-keyboard-response","189","491857","0.0-5.0-1.25","1629","[""videos/slow_high_c1_teal_mirror.mov""]","f","response","false"
"","","","","","html-keyboard-response","190","492358","0.0-5.0-0.26","null","<div style=""font-size:60px;"">+</div>","null","fixation",""
"","","","","","video-keyboard-response","191","493774","0.0-5.0-1.26","1414","[""videos/med_high_c6_teal_mirror.mov""]","f","response","false"
"","","","","","html-keyboard-response","192","494276","0.0-5.0-0.27","null","<div style=""font-size:60px;"">+</div>","null","fixation",""
"","","","","","video-keyboard-response","193","495765","0.0-5.0-1.27","1488","[""videos/slow_low_c4_pink.mov""]","f","response","false"
"","","","","","html-keyboard-response","194","496766","0.0-5.0-0.28","null","<div style=""font-size:60px;"">+</div>","null","fixation",""
"","","","","","video-keyboard-response","195","498130","0.0-5.0-1.28","1362","[""videos/fast_high_c4_pink.mov""]","f","response","false"
"","","","","","html-keyboard-response","196","499132","0.0-5.0-0.29","null","<div style=""font-size:60px;"">+</div>","null","fixation",""
"","","","","","video-keyboard-response","197","500784","0.0-5.0-1.29","1651","[""videos/fast_low_c17_tan.mov""]","j","response","false"
"","","","","","html-keyboard-response","198","501286","0.0-5.0-0.30","null","<div style=""font-size:60px;"">+</div>","null","fixation",""
"","","","","","video-keyboard-response","199","503563","0.0-5.0-1.30","2275","[""videos/fast_high_c12_purple_mirror.mov""]","f","response","false"
"","","","","","html-keyboard-response","200","504315","0.0-5.0-0.31","null","<div style=""font-size:60px;"">+</div>","null","fixation",""
"","","","","","video-keyboard-response","201","505430","0.0-5.0-1.31","1113","[""videos/slow_high_c13_tan_mirror.mov""]","j","response","false"
"","","","","","html-keyboard-response","202","506431","0.0-5.0-0.32","null","<div style=""font-size:60px;"">+</div>","null","fixation",""
"","","","","","video-keyboard-response","203","507851","0.0-5.0-1.32","1418","[""videos/med_med_c7_purple.mov""]","f","response","false"
"","","","","","html-keyboard-response","204","508854","0.0-5.0-0.33","null","<div style=""font-size:60px;"">+</div>","null","fixation",""
"","","","","","video-keyboard-response","205","510685","0.0-5.0-1.33","1829","[""videos/slow_low_c1_pink_mirror.mov""]","f","response","false"
"","","","","","html-keyboard-response","206","511436","0.0-5.0-0.34","null","<div style=""font-size:60px;"">+</div>","null","fixation",""
"","","","","","video-keyboard-response","207","513044","0.0-5.0-1.34","1606","[""videos/fast_high_c13_teal.mov""]","f","response","false"
"","","","","","html-keyboard-response","208","515295","0.0-5.0-2.34-0.34","2250","<p>You can take a quick break now if you need it.</p>
      <p>Press the spacebar to continue.</p>"," ","",""
"","","","","","html-keyboard-response","209","516047","0.0-5.0-0.35","null","<div style=""font-size:60px;"">+</div>","null","fixation",""
"","","","","","video-keyboard-response","210","517735","0.0-5.0-1.35","1686","[""videos/med_low_c16_tan.mov""]","j","response","false"
"","","","","","html-keyboard-response","211","518237","0.0-5.0-0.36","null","<div style=""font-size:60px;"">+</div>","null","fixation",""
"","","","","","video-keyboard-response","212","520458","0.0-5.0-1.36","2220","[""videos/fast_low_c16_teal.mov""]","j","response","false"
"","","","","","html-keyboard-response","213","521210","0.0-5.0-0.37","null","<div style=""font-size:60px;"">+</div>","null","fixation",""
"","","","","","video-keyboard-response","214","522752","0.0-5.0-1.37","1540","[""videos/fast_med_c15_purple.mov""]","f","response","false"
"","","","","","html-keyboard-response","215","523504","0.0-5.0-0.38","null","<div style=""font-size:60px;"">+</div>","null","fixation",""
"","","","","","video-keyboard-response","216","524788","0.0-5.0-1.38","1283","[""videos/slow_med_c10_purple.mov""]","j","response","false"
"","","","","","html-keyboard-response","217","525289","0.0-5.0-0.39","null","<div style=""font-size:60px;"">+</div>","null","fixation",""
"","","","","","video-keyboard-response","218","527473","0.0-5.0-1.39","2182","[""videos/slow_low_c4_tan_mirror.mov""]","j","response","false"
"","","","","","html-keyboard-response","219","528226","0.0-5.0-0.40","null","<div style=""font-size:60px;"">+</div>","null","fixation",""
"","","","","","video-keyboard-response","220","529734","0.0-5.0-1.40","1507","[""videos/med_med_c8_pink_mirror.mov""]","j","response","false"
"","","","","","html-keyboard-response","221","530737","0.0-5.0-0.41","null","<div style=""font-size:60px;"">+</div>","null","fixation",""
"","","","","","video-keyboard-response","222","532288","0.0-5.0-1.41","1550","[""videos/slow_med_c2_teal_mirror.mov""]","f","response","false"
"","","","","","html-keyboard-response","223","533290","0.0-5.0-0.42","null","<div style=""font-size:60px;"">+</div>","null","fixation",""
"","","","","","video-keyboard-response","224","534991","0.0-5.0-1.42","1700","[""videos/med_low_c7_tan_mirror.mov""]","f","response","false"
"","","","","","html-keyboard-response","225","535492","0.0-5.0-0.43","null","<div style=""font-size:60px;"">+</div>","null","fixation",""
"","","","","","video-keyboard-response","226","536851","0.0-5.0-1.43","1357","[""videos/med_high_c6_tan.mov""]","f","response","false"
"","","","","","html-keyboard-response","227","537853","0.0-5.0-0.44","null","<div style=""font-size:60px;"">+</div>","null","fixation",""
"","","","","","video-keyboard-response","228","539368","0.0-5.0-1.44","1514","[""videos/med_high_c7_purple_mirror.mov""]","f","response","false"
"","","","","","html-keyboard-response","229","539869","0.0-5.0-0.45","null","<div style=""font-size:60px;"">+</div>","null","fixation",""
"","","","","","video-keyboard-response","230","542753","0.0-5.0-1.45","2883","[""videos/med_low_c16_teal_mirror.mov""]","j","response","false"
"","","","","","html-keyboard-response","231","543756","0.0-5.0-0.46","null","<div style=""font-size:60px;"">+</div>","null","fixation",""
"","","","","","video-keyboard-response","232","547345","0.0-5.0-1.46","3587","[""videos/med_low_c9_tan.mov""]","f","response","false"
"","","","","","html-keyboard-response","233","548097","0.0-5.0-0.47","null","<div style=""font-size:60px;"">+</div>","null","fixation",""
"","","","","","video-keyboard-response","234","549447","0.0-5.0-1.47","1348","[""videos/slow_low_c3_teal.mov""]","f","response","false"
"","","","","","html-keyboard-response","235","550449","0.0-5.0-0.48","null","<div style=""font-size:60px;"">+</div>","null","fixation",""
"","","","","","video-keyboard-response","236","551615","0.0-5.0-1.48","1164","[""videos/slow_med_c3_tan.mov""]","f","response","false"
"","","","","","html-keyboard-response","237","552117","0.0-5.0-0.49","null","<div style=""font-size:60px;"">+</div>","null","fixation",""
"","","","","","video-keyboard-response","238","553473","0.0-5.0-1.49","1355","[""videos/med_high_c3_tan_mirror.mov""]","f","response","false"
"","","","","","html-keyboard-response","239","554476","0.0-5.0-0.50","null","<div style=""font-size:60px;"">+</div>","null","fixation",""
"","","","","","video-keyboard-response","240","556156","0.0-5.0-1.50","1679","[""videos/fast_high_c17_purple.mov""]","j","response","false"
"","","","","","html-keyboard-response","241","556658","0.0-5.0-0.51","null","<div style=""font-size:60px;"">+</div>","null","fixation",""
"","","","","","video-keyboard-response","242","559600","0.0-5.0-1.51","2941","[""videos/med_high_c10_tan.mov""]","f","response","false"
"","","","","","html-keyboard-response","243","560352","0.0-5.0-0.52","null","<div style=""font-size:60px;"">+</div>","null","fixation",""
"","","","","","video-keyboard-response","244","561944","0.0-5.0-1.52","1590","[""videos/fast_low_c17_pink_mirror.mov""]","f","response","false"
"","","","","","html-keyboard-response","245","562446","0.0-5.0-0.53","null","<div style=""font-size:60px;"">+</div>","null","fixation",""
"","","","","","video-keyboard-response","246","563900","0.0-5.0-1.53","1453","[""videos/slow_med_c2_pink.mov""]","f","response","false"
"","","","","","html-keyboard-response","247","564652","0.0-5.0-0.54","null","<div style=""font-size:60px;"">+</div>","null","fixation",""
"","","","","","video-keyboard-response","248","565936","0.0-5.0-1.54","1283","[""videos/fast_med_c14_teal_mirror.mov""]","f","response","false"
"","","","","","html-keyboard-response","249","567272","0.0-5.0-2.54-0.54","1335","<p>You can take a quick break now if you need it.</p>
      <p>Press the spacebar to continue.</p>"," ","",""
"","","","","","html-keyboard-response","250","568274","0.0-5.0-0.55","null","<div style=""font-size:60px;"">+</div>","null","fixation",""
"","","","","","video-keyboard-response","251","569721","0.0-5.0-1.55","1446","[""videos/med_low_c7_purple.mov""]","f","response","false"
"","","","","","html-keyboard-response","252","570222","0.0-5.0-0.56","null","<div style=""font-size:60px;"">+</div>","null","fixation",""
"","","","","","video-keyboard-response","253","572041","0.0-5.0-1.56","1817","[""videos/med_low_c10_teal.mov""]","j","response","false"
"","","","","","html-keyboard-response","254","573043","0.0-5.0-0.57","null","<div style=""font-size:60px;"">+</div>","null","fixation",""
"","","","","","video-keyboard-response","255","574261","0.0-5.0-1.57","1217","[""videos/med_med_c14_pink_mirror.mov""]","j","response","false"
"","","","","","html-keyboard-response","256","575013","0.0-5.0-0.58","null","<div style=""font-size:60px;"">+</div>","null","fixation",""
"","","","","","video-keyboard-response","257","577081","0.0-5.0-1.58","2067","[""videos/slow_med_c4_pink.mov""]","f","response","false"
"","","","","","html-keyboard-response","258","578083","0.0-5.0-0.59","null","<div style=""font-size:60px;"">+</div>","null","fixation",""
"","","","","","video-keyboard-response","259","579794","0.0-5.0-1.59","1709","[""videos/slow_high_c3_purple_mirror.mov""]","f","response","false"
"","","","","","html-keyboard-response","260","580546","0.0-5.0-0.60","null","<div style=""font-size:60px;"">+</div>","null","fixation",""
"","","","","","video-keyboard-response","261","582479","0.0-5.0-1.60","1931","[""videos/slow_high_c6_tan.mov""]","j","response","false"
"","","","","","html-keyboard-response","262","582980","0.0-5.0-0.61","null","<div style=""font-size:60px;"">+</div>","null","fixation",""
"","","","","","video-keyboard-response","263","585028","0.0-5.0-1.61","2046","[""videos/fast_med_c17_teal_mirror.mov""]","f","response","false"
"","","","","","html-keyboard-response","264","586029","0.0-5.0-0.62","null","<div style=""font-size:60px;"">+</div>","null","fixation",""
"","","","","","video-keyboard-response","265","604617","0.0-5.0-1.62","18587","[""videos/med_high_c10_purple_mirror.mov""]","f","response","false"
"","","","","","html-keyboard-response","266","605119","0.0-5.0-0.63","null","<div style=""font-size:60px;"">+</div>","null","fixation",""
"","","","","","video-keyboard-response","267","606912","0.0-5.0-1.63","1792","[""videos/fast_med_c13_purple_mirror.mov""]","f","response","false"
"","","","","","html-keyboard-response","268","607914","0.0-5.0-0.64","null","<div style=""font-size:60px;"">+</div>","null","fixation",""
"","","","","","video-keyboard-response","269","609090","0.0-5.0-1.64","1174","[""videos/med_med_c4_tan.mov""]","f","response","false"
"","","","","","html-keyboard-response","270","609841","0.0-5.0-0.65","null","<div style=""font-size:60px;"">+</div>","null","fixation",""
"","","","","","video-keyboard-response","271","611358","0.0-5.0-1.65","1515","[""videos/med_med_c9_tan.mov""]","j","response","false"
"","","","","","html-keyboard-response","272","612360","0.0-5.0-0.66","null","<div style=""font-size:60px;"">+</div>","null","fixation",""
"","","","","","video-keyboard-response","273","615451","0.0-5.0-1.66","3090","[""videos/slow_low_c7_pink.mov""]","j","response","false"
"","","","","","html-keyboard-response","274","615953","0.0-5.0-0.67","null","<div style=""font-size:60px;"">+</div>","null","fixation",""
"","","","","","video-keyboard-response","275","617471","0.0-5.0-1.67","1517","[""videos/slow_low_c2_purple_mirror.mov""]","f","response","false"
"","","","","","html-keyboard-response","276","617973","0.0-5.0-0.68","null","<div style=""font-size:60px;"">+</div>","null","fixation",""
"","","","","","video-keyboard-response","277","619312","0.0-5.0-1.68","1337","[""videos/fast_med_c15_pink.mov""]","f","response","false"
"","","","","","html-keyboard-response","278","619813","0.0-5.0-0.69","null","<div style=""font-size:60px;"">+</div>","null","fixation",""
"","","","","","video-keyboard-response","279","620942","0.0-5.0-1.69","1128","[""videos/fast_med_c11_tan_mirror.mov""]","f","response","false"
"","","","","","html-keyboard-response","280","621695","0.0-5.0-0.70","null","<div style=""font-size:60px;"">+</div>","null","fixation",""
"","","","","","video-keyboard-response","281","623017","0.0-5.0-1.70","1320","[""videos/slow_high_c1_purple_mirror.mov""]","f","response","false"
"","","","","","html-keyboard-response","282","623518","0.0-5.0-0.71","null","<div style=""font-size:60px;"">+</div>","null","fixation",""
"","","","","","video-keyboard-response","283","624773","0.0-5.0-1.71","1254","[""videos/slow_high_c3_pink.mov""]","f","response","false"
"","","","","","html-keyboard-response","284","625524","0.0-5.0-0.72","null","<div style=""font-size:60px;"">+</div>","null","fixation",""
"","","","","","video-keyboard-response","285","626852","0.0-5.0-1.72","1327","[""videos/fast_low_c12_pink_mirror.mov""]","f","response","false"
"","","","","","html-keyboard-response","286","627854","0.0-5.0-0.73","null","<div style=""font-size:60px;"">+</div>","null","fixation",""
"","","","","","video-keyboard-response","287","629347","0.0-5.0-1.73","1491","[""videos/fast_low_c16_pink_mirror.mov""]","f","response","false"
"","","","","","html-keyboard-response","288","630098","0.0-5.0-0.74","null","<div style=""font-size:60px;"">+</div>","null","fixation",""
"","","","","","video-keyboard-response","289","631435","0.0-5.0-1.74","1335","[""videos/med_low_c2_pink.mov""]","f","response","false"
"","","","","","html-keyboard-response","290","632712","0.0-5.0-2.74-0.74","1277","<p>You can take a quick break now if you need it.</p>
      <p>Press the spacebar to continue.</p>"," ","",""
"","","","","","html-keyboard-response","291","633464","0.0-5.0-0.75","null","<div style=""font-size:60px;"">+</div>","null","fixation",""
"","","","","","video-keyboard-response","292","634709","0.0-5.0-1.75","1244","[""videos/slow_high_c2_teal_mirror.mov""]","f","response","false"
"","","","","","html-keyboard-response","293","635211","0.0-5.0-0.76","null","<div style=""font-size:60px;"">+</div>","null","fixation",""
"","","","","","video-keyboard-response","294","636310","0.0-5.0-1.76","1097","[""videos/med_high_c3_teal.mov""]","f","response","false"
"","","","","","html-keyboard-response","295","637312","0.0-5.0-0.77","null","<div style=""font-size:60px;"">+</div>","null","fixation",""
"","","","","","video-keyboard-response","296","638472","0.0-5.0-1.77","1159","[""videos/med_high_c1_purple_mirror.mov""]","f","response","false"
"","","","","","html-keyboard-response","297","639474","0.0-5.0-0.78","null","<div style=""font-size:60px;"">+</div>","null","fixation",""
"","","","","","video-keyboard-response","298","640567","0.0-5.0-1.78","1091","[""videos/slow_med_c1_purple_mirror.mov""]","f","response","false"
"","","","","","html-keyboard-response","299","641069","0.0-5.0-0.79","null","<div style=""font-size:60px;"">+</div>","null","fixation",""
"","","","","","video-keyboard-response","300","642621","0.0-5.0-1.79","1551","[""videos/med_low_c8_teal.mov""]","f","response","false"
"","","","","","html-keyboard-response","301","643373","0.0-5.0-0.80","null","<div style=""font-size:60px;"">+</div>","null","fixation",""
"","","","","","video-keyboard-response","302","644658","0.0-5.0-1.80","1283","[""videos/fast_med_c16_tan_mirror.mov""]","f","response","false"
"","","","","","html-keyboard-response","303","645660","0.0-5.0-0.81","null","<div style=""font-size:60px;"">+</div>","null","fixation",""
"","","","","","video-keyboard-response","304","646442","0.0-5.0-1.81","780","[""videos/slow_med_c5_purple.mov""]","f","response","false"
"","","","","","html-keyboard-response","305","647193","0.0-5.0-0.82","null","<div style=""font-size:60px;"">+</div>","null","fixation",""
"","","","","","video-keyboard-response","306","648793","0.0-5.0-1.82","1598","[""videos/fast_high_c17_tan_mirror.mov""]","j","response","false"
"","","","","","html-keyboard-response","307","649795","0.0-5.0-0.83","null","<div style=""font-size:60px;"">+</div>","null","fixation",""
"","","","","","video-keyboard-response","308","650938","0.0-5.0-1.83","1141","[""videos/slow_med_c10_teal_mirror.mov""]","j","response","false"
"","","","","","html-keyboard-response","309","651689","0.0-5.0-0.84","null","<div style=""font-size:60px;"">+</div>","null","fixation",""
"","","","","","video-keyboard-response","310","652961","0.0-5.0-1.84","1271","[""videos/med_high_c5_pink.mov""]","f","response","false"
"","","","","","html-keyboard-response","311","653713","0.0-5.0-0.85","null","<div style=""font-size:60px;"">+</div>","null","fixation",""
"","","","","","video-keyboard-response","312","654762","0.0-5.0-1.85","1047","[""videos/fast_low_c12_tan.mov""]","f","response","false"
"","","","","","html-keyboard-response","313","655763","0.0-5.0-0.86","null","<div style=""font-size:60px;"">+</div>","null","fixation",""
"","","","","","video-keyboard-response","314","657022","0.0-5.0-1.86","1258","[""videos/med_high_c7_pink.mov""]","f","response","false"
"","","","","","html-keyboard-response","315","657524","0.0-5.0-0.87","null","<div style=""font-size:60px;"">+</div>","null","fixation",""
"","","","","","video-keyboard-response","316","659379","0.0-5.0-1.87","1854","[""videos/med_med_c9_teal_mirror.mov""]","f","response","false"
"","","","","","html-keyboard-response","317","660382","0.0-5.0-0.88","null","<div style=""font-size:60px;"">+</div>","null","fixation",""
"","","","","","video-keyboard-response","318","661747","0.0-5.0-1.88","1364","[""videos/fast_med_c6_teal.mov""]","f","response","false"
"","","","","","html-keyboard-response","319","662749","0.0-5.0-0.89","null","<div style=""font-size:60px;"">+</div>","null","fixation",""
"","","","","","video-keyboard-response","320","664011","0.0-5.0-1.89","1260","[""videos/med_med_c6_purple.mov""]","f","response","false"
"","","","","","html-keyboard-response","321","664762","0.0-5.0-0.90","null","<div style=""font-size:60px;"">+</div>","null","fixation",""
"","","","","","video-keyboard-response","322","666087","0.0-5.0-1.90","1323","[""videos/fast_high_c12_teal.mov""]","f","response","false"
"","","","","","html-keyboard-response","323","666588","0.0-5.0-0.91","null","<div style=""font-size:60px;"">+</div>","null","fixation",""
"","","","","","video-keyboard-response","324","667863","0.0-5.0-1.91","1273","[""videos/fast_high_c8_pink_mirror.mov""]","f","response","false"
"","","","","","html-keyboard-response","325","668364","0.0-5.0-0.92","null","<div style=""font-size:60px;"">+</div>","null","fixation",""
"","","","","","video-keyboard-response","326","669439","0.0-5.0-1.92","1073","[""videos/slow_high_c2_pink.mov""]","f","response","false"
"","","","","","html-keyboard-response","327","670192","0.0-5.0-0.93","null","<div style=""font-size:60px;"">+</div>","null","fixation",""
"","","","","","video-keyboard-response","328","671704","0.0-5.0-1.93","1511","[""videos/slow_low_c12_teal_mirror.mov""]","j","response","false"
"","","","","","html-keyboard-response","329","672206","0.0-5.0-0.94","null","<div style=""font-size:60px;"">+</div>","null","fixation",""
"","","","","","video-keyboard-response","330","673980","0.0-5.0-1.94","1773","[""videos/slow_low_c3_purple_mirror.mov""]","f","response","false"
"","","","","","html-keyboard-response","331","675160","0.0-5.0-2.94-0.94","1180","<p>You can take a quick break now if you need it.</p>
      <p>Press the spacebar to continue.</p>"," ","",""
"","","","","","html-keyboard-response","332","676162","0.0-5.0-0.95","null","<div style=""font-size:60px;"">+</div>","null","fixation",""
"","","","","","video-keyboard-response","333","677599","0.0-5.0-1.95","1435","[""videos/fast_low_c5_teal.mov""]","f","response","false"
"","","","","","html-keyboard-response","334","678601","0.0-5.0-0.96","null","<div style=""font-size:60px;"">+</div>","null","fixation",""
"","","","","","video-keyboard-response","335","679821","0.0-5.0-1.96","1219","[""videos/slow_med_c3_purple.mov""]","f","response","false"
"","","","","","html-keyboard-response","336","680323","0.0-5.0-0.97","null","<div style=""font-size:60px;"">+</div>","null","fixation",""
"","","","","","video-keyboard-response","337","682574","0.0-5.0-1.97","2249","[""videos/slow_low_c5_tan_mirror.mov""]","f","response","false"
"","","","","","html-keyboard-response","338","683075","0.0-5.0-0.98","null","<div style=""font-size:60px;"">+</div>","null","fixation",""
"","","","","","video-keyboard-response","339","684483","0.0-5.0-1.98","1407","[""videos/slow_low_c1_tan.mov""]","f","response","false"
"","","","","","html-keyboard-response","340","685235","0.0-5.0-0.99","null","<div style=""font-size:60px;"">+</div>","null","fixation",""
"","","","","","video-keyboard-response","341","686816","0.0-5.0-1.99","1580","[""videos/slow_high_c13_teal.mov""]","j","response","false"
"","","","","","html-keyboard-response","342","687819","0.0-5.0-0.100","null","<div style=""font-size:60px;"">+</div>","null","fixation",""
"","","","","","video-keyboard-response","343","689178","0.0-5.0-1.100","1358","[""videos/slow_med_c7_purple_mirror.mov""]","j","response","false"
"","","","","","html-keyboard-response","344","689680","0.0-5.0-0.101","null","<div style=""font-size:60px;"">+</div>","null","fixation",""
"","","","","","video-keyboard-response","345","691182","0.0-5.0-1.101","1500","[""videos/slow_med_c2_tan_mirror.mov""]","f","response","false"
"","","","","","html-keyboard-response","346","691682","0.0-5.0-0.102","null","<div style=""font-size:60px;"">+</div>","null","fixation",""
"","","","","","video-keyboard-response","347","693886","0.0-5.0-1.102","2202","[""videos/med_low_c2_tan_mirror.mov""]","f","response","false"
"","","","","","html-keyboard-response","348","694888","0.0-5.0-0.103","null","<div style=""font-size:60px;"">+</div>","null","fixation",""
"","","","","","video-keyboard-response","349","696220","0.0-5.0-1.103","1331","[""videos/fast_med_c6_purple_mirror.mov""]","f","response","false"
"","","","","","html-keyboard-response","350","697222","0.0-5.0-0.104","null","<div style=""font-size:60px;"">+</div>","null","fixation",""
"","","","","","video-keyboard-response","351","699895","0.0-5.0-1.104","2671","[""videos/med_high_c13_tan_mirror.mov""]","j","response","false"
"","","","","","html-keyboard-response","352","700396","0.0-5.0-0.105","null","<div style=""font-size:60px;"">+</div>","null","fixation",""
"","","","","","video-keyboard-response","353","702013","0.0-5.0-1.105","1615","[""videos/slow_low_c7_purple_mirror.mov""]","j","response","false"
"","","","","","html-keyboard-response","354","702514","0.0-5.0-0.106","null","<div style=""font-size:60px;"">+</div>","null","fixation",""
"","","","","","video-keyboard-response","355","703938","0.0-5.0-1.106","1423","[""videos/med_high_c1_pink.mov""]","f","response","false"
"","","","","","html-keyboard-response","356","704438","0.0-5.0-0.107","null","<div style=""font-size:60px;"">+</div>","null","fixation",""
"","","","","","video-keyboard-response","357","705900","0.0-5.0-1.107","1460","[""videos/fast_med_c16_pink.mov""]","f","response","false"
"","","","","","html-keyboard-response","358","706652","0.0-5.0-0.108","null","<div style=""font-size:60px;"">+</div>","null","fixation",""
"","","","","","video-keyboard-response","359","707807","0.0-5.0-1.108","1154","[""videos/fast_low_c16_purple_mirror.mov""]","f","response","false"
"","","","","","html-keyboard-response","360","708558","0.0-5.0-0.109","null","<div style=""font-size:60px;"">+</div>","null","fixation",""
"","","","","","video-keyboard-response","361","709627","0.0-5.0-1.109","1067","[""videos/slow_high_c2_purple_mirror.mov""]","f","response","false"
"","","","","","html-keyboard-response","362","710630","0.0-5.0-0.110","null","<div style=""font-size:60px;"">+</div>","null","fixation",""
"","","","","","video-keyboard-response","363","711938","0.0-5.0-1.110","1307","[""videos/slow_med_c7_pink.mov""]","f","response","false"
"","","","","","html-keyboard-response","364","712690","0.0-5.0-0.111","null","<div style=""font-size:60px;"">+</div>","null","fixation",""
"","","","","","video-keyboard-response","365","714211","0.0-5.0-1.111","1519","[""videos/fast_low_c15_pink.mov""]","f","response","false"
"","","","","","html-keyboard-response","366","715213","0.0-5.0-0.112","null","<div style=""font-size:60px;"">+</div>","null","fixation",""
"","","","","","video-keyboard-response","367","716602","0.0-5.0-1.112","1388","[""videos/med_med_c1_teal.mov""]","f","response","false"
"","","","","","html-keyboard-response","368","717104","0.0-5.0-0.113","null","<div style=""font-size:60px;"">+</div>","null","fixation",""
"","","","","","video-keyboard-response","369","718466","0.0-5.0-1.113","1361","[""videos/fast_low_c16_tan.mov""]","f","response","false"
"","","","","","html-keyboard-response","370","719218","0.0-5.0-0.114","null","<div style=""font-size:60px;"">+</div>","null","fixation",""
"","","","","","video-keyboard-response","371","722707","0.0-5.0-1.114","3488","[""videos/fast_low_c17_teal_mirror.mov""]","j","response","false"
"","","","","","html-keyboard-response","372","724228","0.0-5.0-2.114-0.114","1521","<p>You can take a quick break now if you need it.</p>
      <p>Press the spacebar to continue.</p>"," ","",""
"","","","","","html-keyboard-response","373","724729","0.0-5.0-0.115","null","<div style=""font-size:60px;"">+</div>","null","fixation",""
"","","","","","video-keyboard-response","374","726251","0.0-5.0-1.115","1521","[""videos/slow_low_c3_pink_mirror.mov""]","f","response","false"
"","","","","","html-keyboard-response","375","727002","0.0-5.0-0.116","null","<div style=""font-size:60px;"">+</div>","null","fixation",""
"","","","","","video-keyboard-response","376","728370","0.0-5.0-1.116","1367","[""videos/med_low_c8_pink_mirror.mov""]","f","response","false"
"","","","","","html-keyboard-response","377","728872","0.0-5.0-0.117","null","<div style=""font-size:60px;"">+</div>","null","fixation",""
"","","","","","video-keyboard-response","378","730022","0.0-5.0-1.117","1150","[""videos/med_low_c5_pink.mov""]","f","response","false"
"","","","","","html-keyboard-response","379","730524","0.0-5.0-0.118","null","<div style=""font-size:60px;"">+</div>","null","fixation",""
"","","","","","video-keyboard-response","380","731726","0.0-5.0-1.118","1200","[""videos/med_low_c5_tan_mirror.mov""]","f","response","false"
"","","","","","html-keyboard-response","381","732477","0.0-5.0-0.119","null","<div style=""font-size:60px;"">+</div>","null","fixation",""
"","","","","","video-keyboard-response","382","733581","0.0-5.0-1.119","1103","[""videos/med_med_c7_pink_mirror.mov""]","f","response","false"
"","","","","","html-keyboard-response","383","734083","0.0-5.0-0.120","null","<div style=""font-size:60px;"">+</div>","null","fixation",""
"","","","","","video-keyboard-response","384","737495","0.0-5.0-1.120","3410","[""videos/fast_high_c13_tan_mirror.mov""]","j","response","false"
"","","","","","html-keyboard-response","385","738498","0.0-5.0-0.121","null","<div style=""font-size:60px;"">+</div>","null","fixation",""
"","","","","","video-keyboard-response","386","739971","0.0-5.0-1.121","1471","[""videos/med_high_c5_tan_mirror.mov""]","f","response","false"
"","","","","","html-keyboard-response","387","740723","0.0-5.0-0.122","null","<div style=""font-size:60px;"">+</div>","null","fixation",""
"","","","","","video-keyboard-response","388","742378","0.0-5.0-1.122","1654","[""videos/slow_high_c4_tan_mirror.mov""]","j","response","false"
"","","","","","html-keyboard-response","389","742880","0.0-5.0-0.123","null","<div style=""font-size:60px;"">+</div>","null","fixation",""
"","","","","","video-keyboard-response","390","744385","0.0-5.0-1.123","1504","[""videos/slow_med_c1_pink.mov""]","f","response","false"
"","","","","","html-keyboard-response","391","745137","0.0-5.0-0.124","null","<div style=""font-size:60px;"">+</div>","null","fixation",""
"","","","","","video-keyboard-response","392","746496","0.0-5.0-1.124","1357","[""videos/med_med_c11_pink_mirror.mov""]","j","response","false"
"","","","","","html-keyboard-response","393","747497","0.0-5.0-0.125","null","<div style=""font-size:60px;"">+</div>","null","fixation",""
"","","","","","video-keyboard-response","394","748843","0.0-5.0-1.125","1345","[""videos/slow_med_c3_teal_mirror.mov""]","f","response","false"
"","","","","","html-keyboard-response","395","749595","0.0-5.0-0.126","null","<div style=""font-size:60px;"">+</div>","null","fixation",""
"","","","","","video-keyboard-response","396","751438","0.0-5.0-1.126","1841","[""videos/fast_low_c17_purple.mov""]","f","response","false"
"","","","","","html-keyboard-response","397","752190","0.0-5.0-0.127","null","<div style=""font-size:60px;"">+</div>","null","fixation",""
"","","","","","video-keyboard-response","398","753512","0.0-5.0-1.127","1321","[""videos/fast_med_c11_pink.mov""]","f","response","false"
"","","","","","html-keyboard-response","399","754264","0.0-5.0-0.128","null","<div style=""font-size:60px;"">+</div>","null","fixation",""
"","","","","","video-keyboard-response","400","755567","0.0-5.0-1.128","1302","[""videos/med_low_c12_tan_mirror.mov""]","j","response","false"
"","","","","","html-keyboard-response","401","756069","0.0-5.0-0.129","null","<div style=""font-size:60px;"">+</div>","null","fixation",""
"","","","","","video-keyboard-response","402","757679","0.0-5.0-1.129","1609","[""videos/med_low_c9_pink_mirror.mov""]","f","response","false"
"","","","","","html-keyboard-response","403","758681","0.0-5.0-0.130","null","<div style=""font-size:60px;"">+</div>","null","fixation",""
"","","","","","video-keyboard-response","404","759948","0.0-5.0-1.130","1265","[""videos/slow_high_c6_pink_mirror.mov""]","j","response","false"
"","","","","","html-keyboard-response","405","760450","0.0-5.0-0.131","null","<div style=""font-size:60px;"">+</div>","null","fixation",""
"","","","","","video-keyboard-response","406","761727","0.0-5.0-1.131","1275","[""videos/fast_high_c11_teal_mirror.mov""]","f","response","false"
"","","","","","html-keyboard-response","407","762729","0.0-5.0-0.132","null","<div style=""font-size:60px;"">+</div>","null","fixation",""
"","","","","","video-keyboard-response","408","763830","0.0-5.0-1.132","1100","[""videos/fast_med_c13_pink.mov""]","f","response","false"
"","","","","","html-keyboard-response","409","764332","0.0-5.0-0.133","null","<div style=""font-size:60px;"">+</div>","null","fixation",""
"","","","","","video-keyboard-response","410","766090","0.0-5.0-1.133","1756","[""videos/med_high_c8_teal.mov""]","f","response","false"
"","","","","","html-keyboard-response","411","766591","0.0-5.0-0.134","null","<div style=""font-size:60px;"">+</div>","null","fixation",""
"","","","","","video-keyboard-response","412","768444","0.0-5.0-1.134","1852","[""videos/med_med_c11_teal.mov""]","j","response","false"
"","","","","","html-keyboard-response","413","769491","0.0-5.0-2.134-0.134","1046","<p>You can take a quick break now if you need it.</p>
      <p>Press the spacebar to continue.</p>"," ","",""
"","","","","","html-keyboard-response","414","769992","0.0-5.0-0.135","null","<div style=""font-size:60px;"">+</div>","null","fixation",""
"","","","","","video-keyboard-response","415","771948","0.0-5.0-1.135","1954","[""videos/med_low_c10_purple_mirror.mov""]","f","response","false"
"","","","","","html-keyboard-response","416","772449","0.0-5.0-0.136","null","<div style=""font-size:60px;"">+</div>","null","fixation",""
"","","","","","video-keyboard-response","417","773763","0.0-5.0-1.136","1312","[""videos/fast_med_c15_teal_mirror.mov""]","f","response","false"
"","","","","","html-keyboard-response","418","774765","0.0-5.0-0.137","null","<div style=""font-size:60px;"">+</div>","null","fixation",""
"","","","","","video-keyboard-response","419","776086","0.0-5.0-1.137","1319","[""videos/fast_high_c11_pink.mov""]","f","response","false"
"","","","","","html-keyboard-response","420","776588","0.0-5.0-0.138","null","<div style=""font-size:60px;"">+</div>","null","fixation",""
"","","","","","video-keyboard-response","421","777902","0.0-5.0-1.138","1312","[""videos/fast_high_c15_teal_mirror.mov""]","f","response","false"
"","","","","","html-keyboard-response","422","778903","0.0-5.0-0.139","null","<div style=""font-size:60px;"">+</div>","null","fixation",""
"","","","","","video-keyboard-response","423","780218","0.0-5.0-1.139","1313","[""videos/fast_low_c14_pink.mov""]","f","response","false"
"","","","","","html-keyboard-response","424","780720","0.0-5.0-0.140","null","<div style=""font-size:60px;"">+</div>","null","fixation",""
"","","","","","video-keyboard-response","425","782064","0.0-5.0-1.140","1342","[""videos/fast_med_c17_tan.mov""]","f","response","false"
"","","","","","html-keyboard-response","426","782815","0.0-5.0-0.141","null","<div style=""font-size:60px;"">+</div>","null","fixation",""
"","","","","","video-keyboard-response","427","784406","0.0-5.0-1.141","1589","[""videos/med_low_c12_pink.mov""]","j","response","false"
"","","","","","html-keyboard-response","428","784907","0.0-5.0-0.142","null","<div style=""font-size:60px;"">+</div>","null","fixation",""
"","","","","","video-keyboard-response","429","786125","0.0-5.0-1.142","1217","[""videos/fast_high_c10_tan.mov""]","f","response","false"
"","","","","","html-keyboard-response","430","786627","0.0-5.0-0.143","null","<div style=""font-size:60px;"">+</div>","null","fixation",""
"","","","","","video-keyboard-response","431","787829","0.0-5.0-1.143","1201","[""videos/slow_low_c2_pink.mov""]","f","response","false"
"","","","","","html-keyboard-response","432","788869","0.0-6.0","1039","<p>You can take a quick break now if you need it.</p>
      <p>Press the spacebar to continue.</p>"," ","",""
"","","","","","html-keyboard-response","433","789371","0.0-7.0-0.0","null","<div style=""font-size:60px;"">+</div>","null","fixation",""
"","","","","","video-keyboard-response","434","793535","0.0-7.0-1.0","4163","[""videos/fast_high_c15_white.mov""]","f","response","false"
"","","","","","html-keyboard-response","435","794286","0.0-7.0-0.1","null","<div style=""font-size:60px;"">+</div>","null","fixation",""
"","","","","","video-keyboard-response","436","795552","0.0-7.0-1.1","1265","[""videos/med_med_c7_white.mov""]","f","response","false"
"","","","","","html-keyboard-response","437","796053","0.0-7.0-0.2","null","<div style=""font-size:60px;"">+</div>","null","fixation",""
"","","","","","video-keyboard-response","438","797251","0.0-7.0-1.2","1197","[""videos/fast_low_c14_white.mov""]","f","response","false"
"","","","","","html-keyboard-response","439","797753","0.0-7.0-0.3","null","<div style=""font-size:60px;"">+</div>","null","fixation",""
"","","","","","video-keyboard-response","440","799729","0.0-7.0-1.3","1974","[""videos/slow_med_c10_white.mov""]","j","response","false"
"","","","","","html-keyboard-response","441","800481","0.0-7.0-0.4","null","<div style=""font-size:60px;"">+</div>","null","fixation",""
"","","","","","video-keyboard-response","442","805298","0.0-7.0-1.4","4816","[""videos/fast_high_c13_white_mirror.mov""]","f","response","false"
"","","","","","html-keyboard-response","443","805801","0.0-7.0-0.5","null","<div style=""font-size:60px;"">+</div>","null","fixation",""
"","","","","","video-keyboard-response","444","807918","0.0-7.0-1.5","2116","[""videos/slow_low_c5_white_mirror.mov""]","f","response","false"
"","","","","","html-keyboard-response","445","808419","0.0-7.0-0.6","null","<div style=""font-size:60px;"">+</div>","null","fixation",""
"","","","","","video-keyboard-response","446","809706","0.0-7.0-1.6","1285","[""videos/fast_high_c11_white.mov""]","f","response","false"
"","","","","","html-keyboard-response","447","810206","0.0-7.0-0.7","null","<div style=""font-size:60px;"">+</div>","null","fixation",""
"","","","","","video-keyboard-response","448","811559","0.0-7.0-1.7","1351","[""videos/slow_low_c2_white.mov""]","f","response","false"
"","","","","","html-keyboard-response","449","812311","0.0-7.0-0.8","null","<div style=""font-size:60px;"">+</div>","null","fixation",""
"","","","","","video-keyboard-response","450","813654","0.0-7.0-1.8","1342","[""videos/slow_med_c1_white_mirror.mov""]","f","response","false"
"","","","","","html-keyboard-response","451","814406","0.0-7.0-0.9","null","<div style=""font-size:60px;"">+</div>","null","fixation",""
"","","","","","video-keyboard-response","452","815751","0.0-7.0-1.9","1344","[""videos/slow_med_c4_white.mov""]","f","response","false"
"","","","","","html-keyboard-response","453","816503","0.0-7.0-0.10","null","<div style=""font-size:60px;"">+</div>","null","fixation",""
"","","","","","video-keyboard-response","454","817875","0.0-7.0-1.10","1370","[""videos/med_med_c1_white_mirror.mov""]","f","response","false"
"","","","","","html-keyboard-response","455","819098","0.0-7.0-2.10-0.10","1223","<p>You can take a quick break now if you need it.</p>
      <p>Press the spacebar to continue.</p>"," ","",""
"","","","","","html-keyboard-response","456","820101","0.0-7.0-0.11","null","<div style=""font-size:60px;"">+</div>","null","fixation",""
"","","","","","video-keyboard-response","457","823469","0.0-7.0-1.11","3367","[""videos/slow_low_c12_white_mirror.mov""]","f","response","false"
"","","","","","html-keyboard-response","458","824471","0.0-7.0-0.12","null","<div style=""font-size:60px;"">+</div>","null","fixation",""
"","","","","","video-keyboard-response","459","825806","0.0-7.0-1.12","1334","[""videos/fast_low_c15_white.mov""]","f","response","false"
"","","","","","html-keyboard-response","460","826809","0.0-7.0-0.13","null","<div style=""font-size:60px;"">+</div>","null","fixation",""
"","","","","","video-keyboard-response","461","828109","0.0-7.0-1.13","1299","[""videos/med_low_c16_white.mov""]","f","response","false"
"","","","","","html-keyboard-response","462","829111","0.0-7.0-0.14","null","<div style=""font-size:60px;"">+</div>","null","fixation",""
"","","","","","video-keyboard-response","463","830369","0.0-7.0-1.14","1257","[""videos/fast_low_c12_white_mirror.mov""]","f","response","false"
"","","","","","html-keyboard-response","464","831372","0.0-7.0-0.15","null","<div style=""font-size:60px;"">+</div>","null","fixation",""
"","","","","","video-keyboard-response","465","832584","0.0-7.0-1.15","1211","[""videos/slow_low_c3_white.mov""]","f","response","false"
"","","","","","html-keyboard-response","466","833586","0.0-7.0-0.16","null","<div style=""font-size:60px;"">+</div>","null","fixation",""
"","","","","","video-keyboard-response","467","834921","0.0-7.0-1.16","1334","[""videos/slow_low_c4_white_mirror.mov""]","f","response","false"
"","","","","","html-keyboard-response","468","835923","0.0-7.0-0.17","null","<div style=""font-size:60px;"">+</div>","null","fixation",""
"","","","","","video-keyboard-response","469","837202","0.0-7.0-1.17","1279","[""videos/med_high_c8_white_mirror.mov""]","f","response","false"
"","","","","","html-keyboard-response","470","837954","0.0-7.0-0.18","null","<div style=""font-size:60px;"">+</div>","null","fixation",""
"","","","","","video-keyboard-response","471","839297","0.0-7.0-1.18","1341","[""videos/med_high_c6_white_mirror.mov""]","f","response","false"
"","","","","","html-keyboard-response","472","839799","0.0-7.0-0.19","null","<div style=""font-size:60px;"">+</div>","null","fixation",""
"","","","","","video-keyboard-response","473","841048","0.0-7.0-1.19","1248","[""videos/slow_high_c13_white.mov""]","j","response","false"
"","","","","","html-keyboard-response","474","841550","0.0-7.0-0.20","null","<div style=""font-size:60px;"">+</div>","null","fixation",""
"","","","","","video-keyboard-response","475","842880","0.0-7.0-1.20","1329","[""videos/med_med_c11_white_mirror.mov""]","j","response","false"
"","","","","","html-keyboard-response","476","843882","0.0-7.0-0.21","null","<div style=""font-size:60px;"">+</div>","null","fixation",""
"","","","","","video-keyboard-response","477","845685","0.0-7.0-1.21","1802","[""videos/med_med_c8_white_mirror.mov""]","f","response","false"
"","","","","","html-keyboard-response","478","846438","0.0-7.0-0.22","null","<div style=""font-size:60px;"">+</div>","null","fixation",""
"","","","","","video-keyboard-response","479","847735","0.0-7.0-1.22","1296","[""videos/fast_high_c12_white.mov""]","f","response","false"
"","","","","","html-keyboard-response","480","848488","0.0-7.0-0.23","null","<div style=""font-size:60px;"">+</div>","null","fixation",""
"","","","","","video-keyboard-response","481","849820","0.0-7.0-1.23","1331","[""videos/fast_high_c8_white_mirror.mov""]","f","response","false"
"","","","","","html-keyboard-response","482","850572","0.0-7.0-0.24","null","<div style=""font-size:60px;"">+</div>","null","fixation",""
"","","","","","video-keyboard-response","483","851778","0.0-7.0-1.24","1204","[""videos/fast_med_c14_white_mirror.mov""]","f","response","false"
"","","","","","html-keyboard-response","484","852531","0.0-7.0-0.25","null","<div style=""font-size:60px;"">+</div>","null","fixation",""
"","","","","","video-keyboard-response","485","853845","0.0-7.0-1.25","1313","[""videos/med_med_c14_white.mov""]","j","response","false"
"","","","","","html-keyboard-response","486","854346","0.0-7.0-0.26","null","<div style=""font-size:60px;"">+</div>","null","fixation",""
"","","","","","video-keyboard-response","487","855936","0.0-7.0-1.26","1588","[""videos/fast_high_c4_white.mov""]","f","response","false"
"","","","","","html-keyboard-response","488","856687","0.0-7.0-0.27","null","<div style=""font-size:60px;"">+</div>","null","fixation",""
"","","","","","video-keyboard-response","489","858023","0.0-7.0-1.27","1335","[""videos/fast_low_c5_white.mov""]","f","response","false"
"","","","","","html-keyboard-response","490","859026","0.0-7.0-0.28","null","<div style=""font-size:60px;"">+</div>","null","fixation",""
"","","","","","video-keyboard-response","491","860401","0.0-7.0-1.28","1374","[""videos/fast_low_c16_white_mirror.mov""]","f","response","false"
"","","","","","html-keyboard-response","492","861152","0.0-7.0-0.29","null","<div style=""font-size:60px;"">+</div>","null","fixation",""
"","","","","","video-keyboard-response","493","862371","0.0-7.0-1.29","1218","[""videos/slow_low_c1_white.mov""]","f","response","false"
"","","","","","html-keyboard-response","494","863373","0.0-7.0-0.30","null","<div style=""font-size:60px;"">+</div>","null","fixation",""
"","","","","","video-keyboard-response","495","864454","0.0-7.0-1.30","1079","[""videos/med_high_c13_white.mov""]","f","response","false"
"","","","","","html-keyboard-response","496","865594","0.0-7.0-2.30-0.30","1140","<p>You can take a quick break now if you need it.</p>
      <p>Press the spacebar to continue.</p>"," ","",""
"","","","","","html-keyboard-response","497","866095","0.0-7.0-0.31","null","<div style=""font-size:60px;"">+</div>","null","fixation",""
"","","","","","video-keyboard-response","498","867351","0.0-7.0-1.31","1254","[""videos/slow_med_c2_white_mirror.mov""]","f","response","false"
"","","","","","html-keyboard-response","499","867853","0.0-7.0-0.32","null","<div style=""font-size:60px;"">+</div>","null","fixation",""
"","","","","","video-keyboard-response","500","869156","0.0-7.0-1.32","1302","[""videos/med_low_c10_white_mirror.mov""]","f","response","false"
"","","","","","html-keyboard-response","501","869657","0.0-7.0-0.33","null","<div style=""font-size:60px;"">+</div>","null","fixation",""
"","","","","","video-keyboard-response","502","870978","0.0-7.0-1.33","1320","[""videos/med_low_c2_white_mirror.mov""]","f","response","false"
"","","","","","html-keyboard-response","503","871731","0.0-7.0-0.34","null","<div style=""font-size:60px;"">+</div>","null","fixation",""
"","","","","","video-keyboard-response","504","873069","0.0-7.0-1.34","1337","[""videos/slow_low_c7_white.mov""]","f","response","false"
"","","","","","html-keyboard-response","505","873569","0.0-7.0-0.35","null","<div style=""font-size:60px;"">+</div>","null","fixation",""
"","","","","","video-keyboard-response","506","878458","0.0-7.0-1.35","4887","[""videos/med_high_c10_white.mov""]","j","response","false"
"","","","","","html-keyboard-response","507","878959","0.0-7.0-0.36","null","<div style=""font-size:60px;"">+</div>","null","fixation",""
"","","","","","video-keyboard-response","508","880328","0.0-7.0-1.36","1368","[""videos/med_high_c1_white_mirror.mov""]","f","response","false"
"","","","","","html-keyboard-response","509","881080","0.0-7.0-0.37","null","<div style=""font-size:60px;"">+</div>","null","fixation",""
"","","","","","video-keyboard-response","510","882409","0.0-7.0-1.37","1328","[""videos/med_high_c5_white.mov""]","f","response","false"
"","","","","","html-keyboard-response","511","882911","0.0-7.0-0.38","null","<div style=""font-size:60px;"">+</div>","null","fixation",""
"","","","","","video-keyboard-response","512","884225","0.0-7.0-1.38","1312","[""videos/fast_low_c17_white_mirror.mov""]","f","response","false"
"","","","","","html-keyboard-response","513","884976","0.0-7.0-0.39","null","<div style=""font-size:60px;"">+</div>","null","fixation",""
"","","","","","video-keyboard-response","514","886384","0.0-7.0-1.39","1407","[""videos/slow_med_c5_white.mov""]","j","response","false"
"","","","","","html-keyboard-response","515","887386","0.0-7.0-0.40","null","<div style=""font-size:60px;"">+</div>","null","fixation",""
"","","","","","video-keyboard-response","516","888918","0.0-7.0-1.40","1531","[""videos/fast_high_c10_white_mirror.mov""]","f","response","false"
"","","","","","html-keyboard-response","517","889419","0.0-7.0-0.41","null","<div style=""font-size:60px;"">+</div>","null","fixation",""
"","","","","","video-keyboard-response","518","890733","0.0-7.0-1.41","1312","[""videos/fast_med_c13_white.mov""]","f","response","false"
"","","","","","html-keyboard-response","519","891233","0.0-7.0-0.42","null","<div style=""font-size:60px;"">+</div>","null","fixation",""
"","","","","","video-keyboard-response","520","892522","0.0-7.0-1.42","1287","[""videos/fast_med_c17_white.mov""]","f","response","false"
"","","","","","html-keyboard-response","521","893274","0.0-7.0-0.43","null","<div style=""font-size:60px;"">+</div>","null","fixation",""
"","","","","","video-keyboard-response","522","894575","0.0-7.0-1.43","1301","[""videos/med_low_c8_white.mov""]","f","response","false"
"","","","","","html-keyboard-response","523","895327","0.0-7.0-0.44","null","<div style=""font-size:60px;"">+</div>","null","fixation",""
"","","","","","video-keyboard-response","524","896574","0.0-7.0-1.44","1245","[""videos/med_high_c3_white_mirror.mov""]","f","response","false"
"","","","","","html-keyboard-response","525","897075","0.0-7.0-0.45","null","<div style=""font-size:60px;"">+</div>","null","fixation",""
"","","","","","video-keyboard-response","526","898374","0.0-7.0-1.45","1298","[""videos/fast_med_c16_white_mirror.mov""]","f","response","false"
"","","","","","html-keyboard-response","527","898875","0.0-7.0-0.46","null","<div style=""font-size:60px;"">+</div>","null","fixation",""
"","","","","","video-keyboard-response","528","900138","0.0-7.0-1.46","1262","[""videos/fast_med_c15_white.mov""]","f","response","false"
"","","","","","html-keyboard-response","529","900639","0.0-7.0-0.47","null","<div style=""font-size:60px;"">+</div>","null","fixation",""
"","","","","","video-keyboard-response","530","902435","0.0-7.0-1.47","1795","[""videos/med_low_c12_white.mov""]","f","response","false"
"","","","","","html-keyboard-response","531","903188","0.0-7.0-0.48","null","<div style=""font-size:60px;"">+</div>","null","fixation",""
"","","","","","video-keyboard-response","532","904528","0.0-7.0-1.48","1339","[""videos/slow_med_c3_white_mirror.mov""]","f","response","false"
"","","","","","html-keyboard-response","533","905280","0.0-7.0-0.49","null","<div style=""font-size:60px;"">+</div>","null","fixation",""
"","","","","","video-keyboard-response","534","906530","0.0-7.0-1.49","1248","[""videos/med_med_c6_white.mov""]","f","response","false"
"","","","","","html-keyboard-response","535","907280","0.0-7.0-0.50","null","<div style=""font-size:60px;"">+</div>","null","fixation",""
"","","","","","video-keyboard-response","536","908665","0.0-7.0-1.50","1383","[""videos/slow_high_c2_white_mirror.mov""]","f","response","false"
"","","","","","html-keyboard-response","537","909817","0.0-7.0-2.50-0.50","1152","<p>You can take a quick break now if you need it.</p>
      <p>Press the spacebar to continue.</p>"," ","",""
"","","","","","html-keyboard-response","538","910819","0.0-7.0-0.51","null","<div style=""font-size:60px;"">+</div>","null","fixation",""
"","","","","","video-keyboard-response","539","912166","0.0-7.0-1.51","1346","[""videos/fast_high_c17_white_mirror.mov""]","f","response","false"
"","","","","","html-keyboard-response","540","913168","0.0-7.0-0.52","null","<div style=""font-size:60px;"">+</div>","null","fixation",""
"","","","","","video-keyboard-response","541","914326","0.0-7.0-1.52","1156","[""videos/fast_med_c6_white.mov""]","f","response","false"
"","","","","","html-keyboard-response","542","914828","0.0-7.0-0.53","null","<div style=""font-size:60px;"">+</div>","null","fixation",""
"","","","","","video-keyboard-response","543","916200","0.0-7.0-1.53","1371","[""videos/med_low_c5_white.mov""]","f","response","false"
"","","","","","html-keyboard-response","544","917203","0.0-7.0-0.54","null","<div style=""font-size:60px;"">+</div>","null","fixation",""
"","","","","","video-keyboard-response","545","918553","0.0-7.0-1.54","1349","[""videos/slow_high_c3_white_mirror.mov""]","f","response","false"
"","","","","","html-keyboard-response","546","919555","0.0-7.0-0.55","null","<div style=""font-size:60px;"">+</div>","null","fixation",""
"","","","","","video-keyboard-response","547","920618","0.0-7.0-1.55","1062","[""videos/med_low_c7_white_mirror.mov""]","f","response","false"
"","","","","","html-keyboard-response","548","921371","0.0-7.0-0.56","null","<div style=""font-size:60px;"">+</div>","null","fixation",""
"","","","","","video-keyboard-response","549","922689","0.0-7.0-1.56","1317","[""videos/med_high_c7_white.mov""]","f","response","false"
"","","","","","html-keyboard-response","550","923692","0.0-7.0-0.57","null","<div style=""font-size:60px;"">+</div>","null","fixation",""
"","","","","","video-keyboard-response","551","925035","0.0-7.0-1.57","1341","[""videos/med_med_c4_white_mirror.mov""]","f","response","false"
"","","","","","html-keyboard-response","552","925536","0.0-7.0-0.58","null","<div style=""font-size:60px;"">+</div>","null","fixation",""
"","","","","","video-keyboard-response","553","926943","0.0-7.0-1.58","1405","[""videos/slow_high_c1_white.mov""]","f","response","false"
"","","","","","html-keyboard-response","554","927945","0.0-7.0-0.59","null","<div style=""font-size:60px;"">+</div>","null","fixation",""
"","","","","","video-keyboard-response","555","929546","0.0-7.0-1.59","1600","[""videos/slow_med_c7_white.mov""]","j","response","false"
"","","","","","html-keyboard-response","556","930299","0.0-7.0-0.60","null","<div style=""font-size:60px;"">+</div>","null","fixation",""
"","","","","","video-keyboard-response","557","931506","0.0-7.0-1.60","1206","[""videos/fast_med_c11_white_mirror.mov""]","f","response","false"
"","","","","","html-keyboard-response","558","932258","0.0-7.0-0.61","null","<div style=""font-size:60px;"">+</div>","null","fixation",""
"","","","","","video-keyboard-response","559","935421","0.0-7.0-1.61","3161","[""videos/slow_high_c6_white_mirror.mov""]","j","response","false"
"","","","","","html-keyboard-response","560","935923","0.0-7.0-0.62","null","<div style=""font-size:60px;"">+</div>","null","fixation",""
"","","","","","video-keyboard-response","561","937346","0.0-7.0-1.62","1421","[""videos/med_med_c9_white.mov""]","f","response","false"
"","","","","","html-keyboard-response","562","938098","0.0-7.0-0.63","null","<div style=""font-size:60px;"">+</div>","null","fixation",""
"","","","","","video-keyboard-response","563","939691","0.0-7.0-1.63","1591","[""videos/med_low_c9_white_mirror.mov""]","f","response","false"
"","","","","","html-keyboard-response","564","940443","0.0-7.0-0.64","null","<div style=""font-size:60px;"">+</div>","null","fixation",""
"","","","","","video-keyboard-response","565","942134","0.0-7.0-1.64","1691","[""videos/slow_high_c4_white.mov""]","j","response","false"
"","","","","","html-keyboard-response","566","944320","0.0-8.0","2185","<p>Thank you for completing the experiment.</p>","j","",""
