"success","timeout","failed_images","failed_audio","failed_video","trial_type","trial_index","time_elapsed","internal_node_id","rt","stimulus","response","task","test_trial"
"true","false","[]","[]","[]","preload","0","1123","0.0-0.0","","","","",""
"","","","","","html-keyboard-response","1","29011","0.0-1.0","27886","Welcome to the experiment. Press any key to begin."," ","",""
"","","","","","html-keyboard-response","2","58383","0.0-2.0","29371","
        <p>In this experiment, you will be shown short movies containing two objects. One of the objects will be moving toward the other.</p>
        <p>In these movies, the moving object either collides with the stationary object, or it comes to a stop before reaching the stationary object.
          However, you will be shown a clipped version of the movie that does not reveal the ending.</p> 
        <p>Please watch each clip carefully. Then predict whether or not the two objects will collide later on in the video.</p>
        <p>Press the <b>""F""</b> key for <b>yes</b>, the objects will collide.</p> 
        <p>Press the <b>""J""</b> key for <b>no</b>, the objects will not collide.</p>
        <p>Press any key to start.</p>
      "," ","",""
"","","","","","html-keyboard-response","3","60639","0.0-3.0-0.0","null","<div style=""font-size:60px;"">+</div>","null","fixation",""
"","","","","","video-keyboard-response","4","62471","0.0-3.0-1.0","1830","[""videos/med_low_c8_white.mov""]","f","response","false"
"","","","","","html-keyboard-response","5","62972","0.0-3.0-0.1","null","<div style=""font-size:60px;"">+</div>","null","fixation",""
"","","","","","video-keyboard-response","6","64734","0.0-3.0-1.1","1761","[""videos/fast_high_c17_white.mov""]","j","response","false"
"","","","","","html-keyboard-response","7","65486","0.0-3.0-0.2","null","<div style=""font-size:60px;"">+</div>","null","fixation",""
"","","","","","video-keyboard-response","8","67211","0.0-3.0-1.2","1723","[""videos/fast_low_c14_white_mirror.mov""]","f","response","false"
"","","","","","html-keyboard-response","9","67963","0.0-3.0-0.3","null","<div style=""font-size:60px;"">+</div>","null","fixation",""
"","","","","","video-keyboard-response","10","69503","0.0-3.0-1.3","1538","[""videos/med_low_c16_white_mirror.mov""]","j","response","false"
"","","","","","html-keyboard-response","11","70505","0.0-3.0-0.4","null","<div style=""font-size:60px;"">+</div>","null","fixation",""
"","","","","","video-keyboard-response","12","71751","0.0-3.0-1.4","1245","[""videos/fast_low_c15_white_mirror.mov""]","f","response","false"
"","","","","","html-keyboard-response","13","72504","0.0-3.0-0.5","null","<div style=""font-size:60px;"">+</div>","null","fixation",""
"","","","","","video-keyboard-response","14","73359","0.0-3.0-1.5","854","[""videos/fast_med_c15_white.mov""]","f","response","false"
"","","","","","html-keyboard-response","15","73861","0.0-3.0-0.6","null","<div style=""font-size:60px;"">+</div>","null","fixation",""
"","","","","","video-keyboard-response","16","74878","0.0-3.0-1.6","1016","[""videos/med_high_c6_white_mirror.mov""]","f","response","false"
"","","","","","html-keyboard-response","17","75880","0.0-3.0-0.7","null","<div style=""font-size:60px;"">+</div>","null","fixation",""
"","","","","","video-keyboard-response","18","76769","0.0-3.0-1.7","888","[""videos/fast_med_c13_white.mov""]","f","response","false"
"","","","","","html-keyboard-response","19","77771","0.0-3.0-0.8","null","<div style=""font-size:60px;"">+</div>","null","fixation",""
"","","","","","video-keyboard-response","20","78845","0.0-3.0-1.8","1073","[""videos/med_low_c12_white_mirror.mov""]","f","response","false"
"","","","","","html-keyboard-response","21","79848","0.0-3.0-0.9","null","<div style=""font-size:60px;"">+</div>","null","fixation",""
"","","","","","video-keyboard-response","22","81070","0.0-3.0-1.9","1221","[""videos/fast_med_c11_white.mov""]","f","response","false"
"","","","","","html-keyboard-response","23","81823","0.0-3.0-0.10","null","<div style=""font-size:60px;"">+</div>","null","fixation",""
"","","","","","video-keyboard-response","24","83355","0.0-3.0-1.10","1531","[""videos/fast_low_c17_white.mov""]","f","response","false"
"","","","","","html-keyboard-response","25","84106","0.0-3.0-0.11","null","<div style=""font-size:60px;"">+</div>","null","fixation",""
"","","","","","video-keyboard-response","26","85789","0.0-3.0-1.11","1682","[""videos/slow_med_c1_white.mov""]","f","response","false"
"","","","","","html-keyboard-response","27","86792","0.0-3.0-0.12","null","<div style=""font-size:60px;"">+</div>","null","fixation",""
"","","","","","video-keyboard-response","28","87986","0.0-3.0-1.12","1193","[""videos/slow_med_c5_white.mov""]","f","response","false"
"","","","","","html-keyboard-response","29","88488","0.0-3.0-0.13","null","<div style=""font-size:60px;"">+</div>","null","fixation",""
"","","","","","video-keyboard-response","30","89583","0.0-3.0-1.13","1094","[""videos/slow_low_c4_white.mov""]","j","response","false"
"","","","","","html-keyboard-response","31","90336","0.0-3.0-0.14","null","<div style=""font-size:60px;"">+</div>","null","fixation",""
"","","","","","video-keyboard-response","32","92981","0.0-3.0-1.14","2644","[""videos/fast_high_c8_white_mirror.mov""]","f","response","false"
"","","","","","html-keyboard-response","33","93733","0.0-3.0-0.15","null","<div style=""font-size:60px;"">+</div>","null","fixation",""
"","","","","","video-keyboard-response","34","97684","0.0-3.0-1.15","3949","[""videos/med_low_c9_white.mov""]","j","response","false"
"","","","","","html-keyboard-response","35","98436","0.0-3.0-0.16","null","<div style=""font-size:60px;"">+</div>","null","fixation",""
"","","","","","video-keyboard-response","36","102680","0.0-3.0-1.16","4243","[""videos/fast_high_c12_white_mirror.mov""]","j","response","false"
"","","","","","html-keyboard-response","37","103683","0.0-3.0-0.17","null","<div style=""font-size:60px;"">+</div>","null","fixation",""
"","","","","","video-keyboard-response","38","105352","0.0-3.0-1.17","1668","[""videos/fast_high_c11_white_mirror.mov""]","f","response","false"
"","","","","","html-keyboard-response","39","106104","0.0-3.0-0.18","null","<div style=""font-size:60px;"">+</div>","null","fixation",""
"","","","","","video-keyboard-response","40","109265","0.0-3.0-1.18","3159","[""videos/fast_med_c17_white_mirror.mov""]","j","response","false"
"","","","","","html-keyboard-response","41","110017","0.0-3.0-0.19","null","<div style=""font-size:60px;"">+</div>","null","fixation",""
"","","","","","video-keyboard-response","42","113867","0.0-3.0-1.19","3849","[""videos/med_high_c8_white_mirror.mov""]","j","response","false"
"","","","","","html-keyboard-response","43","117448","0.0-3.0-2.19-0.19","3580","<p>You can take a quick break now if you need it.</p>
      <p>Press the spacebar to continue.</p>"," ","",""
"","","","","","html-keyboard-response","44","117949","0.0-3.0-0.20","null","<div style=""font-size:60px;"">+</div>","null","fixation",""
"","","","","","video-keyboard-response","45","121091","0.0-3.0-1.20","3140","[""videos/fast_low_c12_white.mov""]","j","response","false"
"","","","","","html-keyboard-response","46","122093","0.0-3.0-0.21","null","<div style=""font-size:60px;"">+</div>","null","fixation",""
"","","","","","video-keyboard-response","47","123541","0.0-3.0-1.21","1447","[""videos/med_med_c6_white.mov""]","j","response","false"
"","","","","","html-keyboard-response","48","124543","0.0-3.0-0.22","null","<div style=""font-size:60px;"">+</div>","null","fixation",""
"","","","","","video-keyboard-response","49","126471","0.0-3.0-1.22","1927","[""videos/med_high_c10_white_mirror.mov""]","j","response","false"
"","","","","","html-keyboard-response","50","127224","0.0-3.0-0.23","null","<div style=""font-size:60px;"">+</div>","null","fixation",""
"","","","","","video-keyboard-response","51","129516","0.0-3.0-1.23","2290","[""videos/med_med_c8_white_mirror.mov""]","f","response","false"
"","","","","","html-keyboard-response","52","130267","0.0-3.0-0.24","null","<div style=""font-size:60px;"">+</div>","null","fixation",""
"","","","","","video-keyboard-response","53","139668","0.0-3.0-1.24","9399","[""videos/slow_low_c5_white_mirror.mov""]","j","response","false"
"","","","","","html-keyboard-response","54","140420","0.0-3.0-0.25","null","<div style=""font-size:60px;"">+</div>","null","fixation",""
"","","","","","video-keyboard-response","55","141997","0.0-3.0-1.25","1576","[""videos/slow_low_c7_white.mov""]","j","response","false"
"","","","","","html-keyboard-response","56","142749","0.0-3.0-0.26","null","<div style=""font-size:60px;"">+</div>","null","fixation",""
"","","","","","video-keyboard-response","57","144636","0.0-3.0-1.26","1885","[""videos/fast_high_c13_white.mov""]","f","response","false"
"","","","","","html-keyboard-response","58","145137","0.0-3.0-0.27","null","<div style=""font-size:60px;"">+</div>","null","fixation",""
"","","","","","video-keyboard-response","59","148404","0.0-3.0-1.27","3266","[""videos/med_low_c2_white_mirror.mov""]","j","response","false"
"","","","","","html-keyboard-response","60","149406","0.0-3.0-0.28","null","<div style=""font-size:60px;"">+</div>","null","fixation",""
"","","","","","video-keyboard-response","61","152129","0.0-3.0-1.28","2721","[""videos/fast_high_c10_white_mirror.mov""]","f","response","false"
"","","","","","html-keyboard-response","62","152630","0.0-3.0-0.29","null","<div style=""font-size:60px;"">+</div>","null","fixation",""
"","","","","","video-keyboard-response","63","153811","0.0-3.0-1.29","1179","[""videos/fast_med_c14_white.mov""]","f","response","false"
"","","","","","html-keyboard-response","64","154813","0.0-3.0-0.30","null","<div style=""font-size:60px;"">+</div>","null","fixation",""
"","","","","","video-keyboard-response","65","157947","0.0-3.0-1.30","3132","[""videos/med_high_c5_white.mov""]","f","response","false"
"","","","","","html-keyboard-response","66","158448","0.0-3.0-0.31","null","<div style=""font-size:60px;"">+</div>","null","fixation",""
"","","","","","video-keyboard-response","67","159679","0.0-3.0-1.31","1229","[""videos/slow_low_c3_white.mov""]","f","response","false"
"","","","","","html-keyboard-response","68","160431","0.0-3.0-0.32","null","<div style=""font-size:60px;"">+</div>","null","fixation",""
"","","","","","video-keyboard-response","69","162373","0.0-3.0-1.32","1940","[""videos/slow_high_c2_white_mirror.mov""]","f","response","false"
"","","","","","html-keyboard-response","70","162874","0.0-3.0-0.33","null","<div style=""font-size:60px;"">+</div>","null","fixation",""
"","","","","","video-keyboard-response","71","164218","0.0-3.0-1.33","1342","[""videos/fast_low_c5_white_mirror.mov""]","f","response","false"
"","","","","","html-keyboard-response","72","164719","0.0-3.0-0.34","null","<div style=""font-size:60px;"">+</div>","null","fixation",""
"","","","","","video-keyboard-response","73","165886","0.0-3.0-1.34","1165","[""videos/med_high_c3_white.mov""]","f","response","false"
"","","","","","html-keyboard-response","74","166887","0.0-3.0-0.35","null","<div style=""font-size:60px;"">+</div>","null","fixation",""
"","","","","","video-keyboard-response","75","168207","0.0-3.0-1.35","1318","[""videos/med_med_c4_white.mov""]","f","response","false"
"","","","","","html-keyboard-response","76","168958","0.0-3.0-0.36","null","<div style=""font-size:60px;"">+</div>","null","fixation",""
"","","","","","video-keyboard-response","77","170223","0.0-3.0-1.36","1264","[""videos/slow_med_c3_white_mirror.mov""]","f","response","false"
"","","","","","html-keyboard-response","78","170725","0.0-3.0-0.37","null","<div style=""font-size:60px;"">+</div>","null","fixation",""
"","","","","","video-keyboard-response","79","171953","0.0-3.0-1.37","1226","[""videos/med_high_c1_white.mov""]","f","response","false"
"","","","","","html-keyboard-response","80","172954","0.0-3.0-0.38","null","<div style=""font-size:60px;"">+</div>","null","fixation",""
"","","","","","video-keyboard-response","81","174320","0.0-3.0-1.38","1365","[""videos/slow_low_c2_white.mov""]","f","response","false"
"","","","","","html-keyboard-response","82","175073","0.0-3.0-0.39","null","<div style=""font-size:60px;"">+</div>","null","fixation",""
"","","","","","video-keyboard-response","83","176502","0.0-3.0-1.39","1428","[""videos/slow_low_c1_white_mirror.mov""]","f","response","false"
"","","","","","html-keyboard-response","84","182136","0.0-3.0-2.39-0.39","5634","<p>You can take a quick break now if you need it.</p>
      <p>Press the spacebar to continue.</p>"," ","",""
"","","","","","html-keyboard-response","85","183138","0.0-3.0-0.40","null","<div style=""font-size:60px;"">+</div>","null","fixation",""
"","","","","","video-keyboard-response","86","184373","0.0-3.0-1.40","1233","[""videos/slow_high_c1_white.mov""]","f","response","false"
"","","","","","html-keyboard-response","87","185373","0.0-3.0-0.41","null","<div style=""font-size:60px;"">+</div>","null","fixation",""
"","","","","","video-keyboard-response","88","186798","0.0-3.0-1.41","1423","[""videos/med_med_c1_white.mov""]","f","response","false"
"","","","","","html-keyboard-response","89","187800","0.0-3.0-0.42","null","<div style=""font-size:60px;"">+</div>","null","fixation",""
"","","","","","video-keyboard-response","90","189075","0.0-3.0-1.42","1274","[""videos/med_med_c7_white.mov""]","f","response","false"
"","","","","","html-keyboard-response","91","190077","0.0-3.0-0.43","null","<div style=""font-size:60px;"">+</div>","null","fixation",""
"","","","","","video-keyboard-response","92","191634","0.0-3.0-1.43","1556","[""videos/med_high_c13_white_mirror.mov""]","j","response","false"
"","","","","","html-keyboard-response","93","192136","0.0-3.0-0.44","null","<div style=""font-size:60px;"">+</div>","null","fixation",""
"","","","","","video-keyboard-response","94","193385","0.0-3.0-1.44","1247","[""videos/fast_med_c16_white_mirror.mov""]","f","response","false"
"","","","","","html-keyboard-response","95","194137","0.0-3.0-0.45","null","<div style=""font-size:60px;"">+</div>","null","fixation",""
"","","","","","video-keyboard-response","96","196018","0.0-3.0-1.45","1880","[""videos/med_med_c14_white_mirror.mov""]","j","response","false"
"","","","","","html-keyboard-response","97","196770","0.0-3.0-0.46","null","<div style=""font-size:60px;"">+</div>","null","fixation",""
"","","","","","video-keyboard-response","98","198537","0.0-3.0-1.46","1766","[""videos/med_med_c11_white_mirror.mov""]","j","response","false"
"","","","","","html-keyboard-response","99","199540","0.0-3.0-0.47","null","<div style=""font-size:60px;"">+</div>","null","fixation",""
"","","","","","video-keyboard-response","100","201329","0.0-3.0-1.47","1787","[""videos/med_high_c7_white.mov""]","j","response","false"
"","","","","","html-keyboard-response","101","201831","0.0-3.0-0.48","null","<div style=""font-size:60px;"">+</div>","null","fixation",""
"","","","","","video-keyboard-response","102","203496","0.0-3.0-1.48","1663","[""videos/fast_med_c6_white_mirror.mov""]","f","response","false"
"","","","","","html-keyboard-response","103","204248","0.0-3.0-0.49","null","<div style=""font-size:60px;"">+</div>","null","fixation",""
"","","","","","video-keyboard-response","104","206684","0.0-3.0-1.49","2435","[""videos/med_low_c5_white.mov""]","f","response","false"
"","","","","","html-keyboard-response","105","207436","0.0-3.0-0.50","null","<div style=""font-size:60px;"">+</div>","null","fixation",""
"","","","","","video-keyboard-response","106","208336","0.0-3.0-1.50","898","[""videos/slow_high_c6_white.mov""]","j","response","false"
"","","","","","html-keyboard-response","107","208838","0.0-3.0-0.51","null","<div style=""font-size:60px;"">+</div>","null","fixation",""
"","","","","","video-keyboard-response","108","210129","0.0-3.0-1.51","1290","[""videos/slow_med_c2_white_mirror.mov""]","f","response","false"
"","","","","","html-keyboard-response","109","211131","0.0-3.0-0.52","null","<div style=""font-size:60px;"">+</div>","null","fixation",""
"","","","","","video-keyboard-response","110","212159","0.0-3.0-1.52","1026","[""videos/slow_high_c13_white_mirror.mov""]","j","response","false"
"","","","","","html-keyboard-response","111","212660","0.0-3.0-0.53","null","<div style=""font-size:60px;"">+</div>","null","fixation",""
"","","","","","video-keyboard-response","112","215152","0.0-3.0-1.53","2491","[""videos/med_low_c7_white.mov""]","f","response","false"
"","","","","","html-keyboard-response","113","215904","0.0-3.0-0.54","null","<div style=""font-size:60px;"">+</div>","null","fixation",""
"","","","","","video-keyboard-response","114","217490","0.0-3.0-1.54","1584","[""videos/med_med_c9_white_mirror.mov""]","f","response","false"
"","","","","","html-keyboard-response","115","217992","0.0-3.0-0.55","null","<div style=""font-size:60px;"">+</div>","null","fixation",""
"","","","","","video-keyboard-response","116","219194","0.0-3.0-1.55","1201","[""videos/slow_high_c4_white.mov""]","j","response","false"
"","","","","","html-keyboard-response","117","219947","0.0-3.0-0.56","null","<div style=""font-size:60px;"">+</div>","null","fixation",""
"","","","","","video-keyboard-response","118","221246","0.0-3.0-1.56","1298","[""videos/med_low_c10_white_mirror.mov""]","j","response","false"
"","","","","","html-keyboard-response","119","222248","0.0-3.0-0.57","null","<div style=""font-size:60px;"">+</div>","null","fixation",""
"","","","","","video-keyboard-response","120","223199","0.0-3.0-1.57","949","[""videos/slow_low_c12_white_mirror.mov""]","j","response","false"
"","","","","","html-keyboard-response","121","223700","0.0-3.0-0.58","null","<div style=""font-size:60px;"">+</div>","null","fixation",""
"","","","","","video-keyboard-response","122","224856","0.0-3.0-1.58","1154","[""videos/slow_med_c4_white.mov""]","f","response","false"
"","","","","","html-keyboard-response","123","225858","0.0-3.0-0.59","null","<div style=""font-size:60px;"">+</div>","null","fixation",""
"","","","","","video-keyboard-response","124","226903","0.0-3.0-1.59","1044","[""videos/slow_high_c3_white_mirror.mov""]","f","response","false"
"","","","","","html-keyboard-response","125","228369","0.0-3.0-2.59-0.59","1466","<p>You can take a quick break now if you need it.</p>
      <p>Press the spacebar to continue.</p>"," ","",""
"","","","","","html-keyboard-response","126","229121","0.0-3.0-0.60","null","<div style=""font-size:60px;"">+</div>","null","fixation",""
"","","","","","video-keyboard-response","127","230390","0.0-3.0-1.60","1268","[""videos/fast_high_c15_white.mov""]","f","response","false"
"","","","","","html-keyboard-response","128","230892","0.0-3.0-0.61","null","<div style=""font-size:60px;"">+</div>","null","fixation",""
"","","","","","video-keyboard-response","129","231993","0.0-3.0-1.61","1100","[""videos/fast_high_c4_white.mov""]","f","response","false"
"","","","","","html-keyboard-response","130","232494","0.0-3.0-0.62","null","<div style=""font-size:60px;"">+</div>","null","fixation",""
"","","","","","video-keyboard-response","131","233522","0.0-3.0-1.62","1026","[""videos/slow_med_c10_white_mirror.mov""]","j","response","false"
"","","","","","html-keyboard-response","132","234024","0.0-3.0-0.63","null","<div style=""font-size:60px;"">+</div>","null","fixation",""
"","","","","","video-keyboard-response","133","237736","0.0-3.0-1.63","3711","[""videos/fast_low_c16_white.mov""]","f","response","false"
"","","","","","html-keyboard-response","134","238488","0.0-3.0-0.64","null","<div style=""font-size:60px;"">+</div>","null","fixation",""
"","","","","","video-keyboard-response","135","241302","0.0-3.0-1.64","2813","[""videos/slow_med_c7_white.mov""]","j","response","false"
"","","","","","html-keyboard-response","136","243059","0.0-4.0","1757","<p>You can take a quick break now if you need it.</p>
      <p>Press the spacebar to continue.</p>"," ","",""
"","","","","","html-keyboard-response","137","244061","0.0-5.0-0.0","null","<div style=""font-size:60px;"">+</div>","null","fixation",""
"","","","","","video-keyboard-response","138","245509","0.0-5.0-1.0","1447","[""videos/fast_high_c4_pink.mov""]","f","response","false"
"","","","","","html-keyboard-response","139","246262","0.0-5.0-0.1","null","<div style=""font-size:60px;"">+</div>","null","fixation",""
"","","","","","video-keyboard-response","140","248443","0.0-5.0-1.1","2180","[""videos/slow_low_c12_purple.mov""]","j","response","false"
"","","","","","html-keyboard-response","141","248945","0.0-5.0-0.2","null","<div style=""font-size:60px;"">+</div>","null","fixation",""
"","","","","","video-keyboard-response","142","251873","0.0-5.0-1.2","2927","[""videos/med_low_c2_tan_mirror.mov""]","j","response","false"
"","","","","","html-keyboard-response","143","252875","0.0-5.0-0.3","null","<div style=""font-size:60px;"">+</div>","null","fixation",""
"","","","","","video-keyboard-response","144","258278","0.0-5.0-1.3","5402","[""videos/fast_med_c14_pink.mov""]","f","response","false"
"","","","","","html-keyboard-response","145","259030","0.0-5.0-0.4","null","<div style=""font-size:60px;"">+</div>","null","fixation",""
"","","","","","video-keyboard-response","146","260347","0.0-5.0-1.4","1316","[""videos/slow_med_c4_tan.mov""]","f","response","false"
"","","","","","html-keyboard-response","147","260848","0.0-5.0-0.5","null","<div style=""font-size:60px;"">+</div>","null","fixation",""
"","","","","","video-keyboard-response","148","263548","0.0-5.0-1.5","2698","[""videos/fast_low_c16_tan_mirror.mov""]","f","response","false"
"","","","","","html-keyboard-response","149","264300","0.0-5.0-0.6","null","<div style=""font-size:60px;"">+</div>","null","fixation",""
"","","","","","video-keyboard-response","150","265288","0.0-5.0-1.6","986","[""videos/med_med_c14_tan.mov""]","j","response","false"
"","","","","","html-keyboard-response","151","266290","0.0-5.0-0.7","null","<div style=""font-size:60px;"">+</div>","null","fixation",""
"","","","","","video-keyboard-response","152","269096","0.0-5.0-1.7","2805","[""videos/fast_med_c15_pink_mirror.mov""]","f","response","false"
"","","","","","html-keyboard-response","153","269598","0.0-5.0-0.8","null","<div style=""font-size:60px;"">+</div>","null","fixation",""
"","","","","","video-keyboard-response","154","270851","0.0-5.0-1.8","1251","[""videos/slow_med_c2_pink.mov""]","f","response","false"
"","","","","","html-keyboard-response","155","271853","0.0-5.0-0.9","null","<div style=""font-size:60px;"">+</div>","null","fixation",""
"","","","","","video-keyboard-response","156","273084","0.0-5.0-1.9","1231","[""videos/slow_low_c1_teal.mov""]","f","response","false"
"","","","","","html-keyboard-response","157","274086","0.0-5.0-0.10","null","<div style=""font-size:60px;"">+</div>","null","fixation",""
"","","","","","video-keyboard-response","158","275909","0.0-5.0-1.10","1822","[""videos/med_med_c9_tan_mirror.mov""]","j","response","false"
"","","","","","html-keyboard-response","159","276662","0.0-5.0-0.11","null","<div style=""font-size:60px;"">+</div>","null","fixation",""
"","","","","","video-keyboard-response","160","277978","0.0-5.0-1.11","1315","[""videos/fast_low_c14_purple_mirror.mov""]","f","response","false"
"","","","","","html-keyboard-response","161","278730","0.0-5.0-0.12","null","<div style=""font-size:60px;"">+</div>","null","fixation",""
"","","","","","video-keyboard-response","162","280177","0.0-5.0-1.12","1446","[""videos/slow_med_c1_purple.mov""]","f","response","false"
"","","","","","html-keyboard-response","163","280679","0.0-5.0-0.13","null","<div style=""font-size:60px;"">+</div>","null","fixation",""
"","","","","","video-keyboard-response","164","281895","0.0-5.0-1.13","1214","[""videos/fast_high_c8_pink.mov""]","f","response","false"
"","","","","","html-keyboard-response","165","282397","0.0-5.0-0.14","null","<div style=""font-size:60px;"">+</div>","null","fixation",""
"","","","","","video-keyboard-response","166","284529","0.0-5.0-1.14","2131","[""videos/med_med_c8_tan_mirror.mov""]","j","response","false"
"","","","","","html-keyboard-response","167","285461","0.0-5.0-2.14-0.14","932","<p>You can take a quick break now if you need it.</p>
      <p>Press the spacebar to continue.</p>"," ","",""
"","","","","","html-keyboard-response","168","286462","0.0-5.0-0.15","null","<div style=""font-size:60px;"">+</div>","null","fixation",""
"","","","","","video-keyboard-response","169","287625","0.0-5.0-1.15","1161","[""videos/slow_high_c2_tan_mirror.mov""]","f","response","false"
"","","","","","html-keyboard-response","170","288126","0.0-5.0-0.16","null","<div style=""font-size:60px;"">+</div>","null","fixation",""
"","","","","","video-keyboard-response","171","288980","0.0-5.0-1.16","853","[""videos/fast_high_c10_pink.mov""]","f","response","false"
"","","","","","html-keyboard-response","172","289982","0.0-5.0-0.17","null","<div style=""font-size:60px;"">+</div>","null","fixation",""
"","","","","","video-keyboard-response","173","291067","0.0-5.0-1.17","1084","[""videos/med_high_c6_teal_mirror.mov""]","f","response","false"
"","","","","","html-keyboard-response","174","291569","0.0-5.0-0.18","null","<div style=""font-size:60px;"">+</div>","null","fixation",""
"","","","","","video-keyboard-response","175","292856","0.0-5.0-1.18","1286","[""videos/fast_low_c16_purple_mirror.mov""]","f","response","false"
"","","","","","html-keyboard-response","176","293357","0.0-5.0-0.19","null","<div style=""font-size:60px;"">+</div>","null","fixation",""
"","","","","","video-keyboard-response","177","294584","0.0-5.0-1.19","1225","[""videos/med_med_c6_purple.mov""]","f","response","false"
"","","","","","html-keyboard-response","178","295085","0.0-5.0-0.20","null","<div style=""font-size:60px;"">+</div>","null","fixation",""
"","","","","","video-keyboard-response","179","296569","0.0-5.0-1.20","1482","[""videos/slow_med_c7_purple.mov""]","j","response","false"
"","","","","","html-keyboard-response","180","297321","0.0-5.0-0.21","null","<div style=""font-size:60px;"">+</div>","null","fixation",""
"","","","","","video-keyboard-response","181","299351","0.0-5.0-1.21","2029","[""videos/med_med_c8_pink.mov""]","j","response","false"
"","","","","","html-keyboard-response","182","300103","0.0-5.0-0.22","null","<div style=""font-size:60px;"">+</div>","null","fixation",""
"","","","","","video-keyboard-response","183","301702","0.0-5.0-1.22","1599","[""videos/slow_med_c1_pink_mirror.mov""]","f","response","false"
"","","","","","html-keyboard-response","184","302455","0.0-5.0-0.23","null","<div style=""font-size:60px;"">+</div>","null","fixation",""
"","","","","","video-keyboard-response","185","304416","0.0-5.0-1.23","1960","[""videos/slow_low_c4_purple.mov""]","j","response","false"
"","","","","","html-keyboard-response","186","304917","0.0-5.0-0.24","null","<div style=""font-size:60px;"">+</div>","null","fixation",""
"","","","","","video-keyboard-response","187","306213","0.0-5.0-1.24","1295","[""videos/slow_high_c6_purple.mov""]","j","response","false"
"","","","","","html-keyboard-response","188","307215","0.0-5.0-0.25","null","<div style=""font-size:60px;"">+</div>","null","fixation",""
"","","","","","video-keyboard-response","189","308480","0.0-5.0-1.25","1264","[""videos/slow_low_c2_teal_mirror.mov""]","f","response","false"
"","","","","","html-keyboard-response","190","309232","0.0-5.0-0.26","null","<div style=""font-size:60px;"">+</div>","null","fixation",""
"","","","","","video-keyboard-response","191","310704","0.0-5.0-1.26","1471","[""videos/med_high_c13_tan_mirror.mov""]","j","response","false"
"","","","","","html-keyboard-response","192","311706","0.0-5.0-0.27","null","<div style=""font-size:60px;"">+</div>","null","fixation",""
"","","","","","video-keyboard-response","193","313240","0.0-5.0-1.27","1532","[""videos/slow_low_c2_tan.mov""]","f","response","false"
"","","","","","html-keyboard-response","194","313742","0.0-5.0-0.28","null","<div style=""font-size:60px;"">+</div>","null","fixation",""
"","","","","","video-keyboard-response","195","315666","0.0-5.0-1.28","1923","[""videos/fast_low_c17_pink.mov""]","f","response","false"
"","","","","","html-keyboard-response","196","316667","0.0-5.0-0.29","null","<div style=""font-size:60px;"">+</div>","null","fixation",""
"","","","","","video-keyboard-response","197","318391","0.0-5.0-1.29","1723","[""videos/med_high_c1_tan_mirror.mov""]","f","response","false"
"","","","","","html-keyboard-response","198","318893","0.0-5.0-0.30","null","<div style=""font-size:60px;"">+</div>","null","fixation",""
"","","","","","video-keyboard-response","199","320792","0.0-5.0-1.30","1897","[""videos/med_med_c1_tan_mirror.mov""]","f","response","false"
"","","","","","html-keyboard-response","200","321293","0.0-5.0-0.31","null","<div style=""font-size:60px;"">+</div>","null","fixation",""
"","","","","","video-keyboard-response","201","322800","0.0-5.0-1.31","1505","[""videos/med_low_c7_purple_mirror.mov""]","j","response","false"
"","","","","","html-keyboard-response","202","323301","0.0-5.0-0.32","null","<div style=""font-size:60px;"">+</div>","null","fixation",""
"","","","","","video-keyboard-response","203","324772","0.0-5.0-1.32","1470","[""videos/slow_low_c7_purple_mirror.mov""]","j","response","false"
"","","","","","html-keyboard-response","204","325274","0.0-5.0-0.33","null","<div style=""font-size:60px;"">+</div>","null","fixation",""
"","","","","","video-keyboard-response","205","326438","0.0-5.0-1.33","1163","[""videos/fast_high_c12_pink.mov""]","f","response","false"
"","","","","","html-keyboard-response","206","326940","0.0-5.0-0.34","null","<div style=""font-size:60px;"">+</div>","null","fixation",""
"","","","","","video-keyboard-response","207","328467","0.0-5.0-1.34","1525","[""videos/med_high_c6_tan.mov""]","f","response","false"
"","","","","","html-keyboard-response","208","329482","0.0-5.0-2.34-0.34","1015","<p>You can take a quick break now if you need it.</p>
      <p>Press the spacebar to continue.</p>"," ","",""
"","","","","","html-keyboard-response","209","330484","0.0-5.0-0.35","null","<div style=""font-size:60px;"">+</div>","null","fixation",""
"","","","","","video-keyboard-response","210","331684","0.0-5.0-1.35","1199","[""videos/fast_low_c5_pink_mirror.mov""]","f","response","false"
"","","","","","html-keyboard-response","211","332186","0.0-5.0-0.36","null","<div style=""font-size:60px;"">+</div>","null","fixation",""
"","","","","","video-keyboard-response","212","333246","0.0-5.0-1.36","1058","[""videos/med_low_c16_pink_mirror.mov""]","j","response","false"
"","","","","","html-keyboard-response","213","334248","0.0-5.0-0.37","null","<div style=""font-size:60px;"">+</div>","null","fixation",""
"","","","","","video-keyboard-response","214","335910","0.0-5.0-1.37","1660","[""videos/slow_high_c3_teal.mov""]","f","response","false"
"","","","","","html-keyboard-response","215","336411","0.0-5.0-0.38","null","<div style=""font-size:60px;"">+</div>","null","fixation",""
"","","","","","video-keyboard-response","216","337828","0.0-5.0-1.38","1416","[""videos/med_med_c1_teal.mov""]","f","response","false"
"","","","","","html-keyboard-response","217","338329","0.0-5.0-0.39","null","<div style=""font-size:60px;"">+</div>","null","fixation",""
"","","","","","video-keyboard-response","218","339619","0.0-5.0-1.39","1289","[""videos/fast_low_c12_pink_mirror.mov""]","f","response","false"
"","","","","","html-keyboard-response","219","340620","0.0-5.0-0.40","null","<div style=""font-size:60px;"">+</div>","null","fixation",""
"","","","","","video-keyboard-response","220","341771","0.0-5.0-1.40","1149","[""videos/slow_med_c2_purple.mov""]","f","response","false"
"","","","","","html-keyboard-response","221","342273","0.0-5.0-0.41","null","<div style=""font-size:60px;"">+</div>","null","fixation",""
"","","","","","video-keyboard-response","222","343521","0.0-5.0-1.41","1247","[""videos/slow_high_c4_pink.mov""]","f","response","false"
"","","","","","html-keyboard-response","223","344023","0.0-5.0-0.42","null","<div style=""font-size:60px;"">+</div>","null","fixation",""
"","","","","","video-keyboard-response","224","345429","0.0-5.0-1.42","1405","[""videos/fast_low_c17_teal.mov""]","f","response","false"
"","","","","","html-keyboard-response","225","346432","0.0-5.0-0.43","null","<div style=""font-size:60px;"">+</div>","null","fixation",""
"","","","","","video-keyboard-response","226","347776","0.0-5.0-1.43","1343","[""videos/slow_med_c7_pink_mirror.mov""]","j","response","false"
"","","","","","html-keyboard-response","227","348278","0.0-5.0-0.44","null","<div style=""font-size:60px;"">+</div>","null","fixation",""
"","","","","","video-keyboard-response","228","349502","0.0-5.0-1.44","1223","[""videos/fast_low_c15_teal_mirror.mov""]","f","response","false"
"","","","","","html-keyboard-response","229","350253","0.0-5.0-0.45","null","<div style=""font-size:60px;"">+</div>","null","fixation",""
"","","","","","video-keyboard-response","230","352657","0.0-5.0-1.45","2403","[""videos/med_low_c10_purple_mirror.mov""]","j","response","false"
"","","","","","html-keyboard-response","231","353658","0.0-5.0-0.46","null","<div style=""font-size:60px;"">+</div>","null","fixation",""
"","","","","","video-keyboard-response","232","354984","0.0-5.0-1.46","1325","[""videos/slow_low_c3_pink_mirror.mov""]","f","response","false"
"","","","","","html-keyboard-response","233","355486","0.0-5.0-0.47","null","<div style=""font-size:60px;"">+</div>","null","fixation",""
"","","","","","video-keyboard-response","234","356948","0.0-5.0-1.47","1461","[""videos/med_high_c13_pink.mov""]","j","response","false"
"","","","","","html-keyboard-response","235","357949","0.0-5.0-0.48","null","<div style=""font-size:60px;"">+</div>","null","fixation",""
"","","","","","video-keyboard-response","236","359413","0.0-5.0-1.48","1463","[""videos/fast_med_c11_tan_mirror.mov""]","f","response","false"
"","","","","","html-keyboard-response","237","359915","0.0-5.0-0.49","null","<div style=""font-size:60px;"">+</div>","null","fixation",""
"","","","","","video-keyboard-response","238","361111","0.0-5.0-1.49","1195","[""videos/fast_high_c15_pink_mirror.mov""]","j","response","false"
"","","","","","html-keyboard-response","239","361863","0.0-5.0-0.50","null","<div style=""font-size:60px;"">+</div>","null","fixation",""
"","","","","","video-keyboard-response","240","365396","0.0-5.0-1.50","3532","[""videos/fast_med_c6_teal_mirror.mov""]","j","response","false"
"","","","","","html-keyboard-response","241","366398","0.0-5.0-0.51","null","<div style=""font-size:60px;"">+</div>","null","fixation",""
"","","","","","video-keyboard-response","242","367684","0.0-5.0-1.51","1284","[""videos/slow_low_c3_tan.mov""]","f","response","false"
"","","","","","html-keyboard-response","243","368436","0.0-5.0-0.52","null","<div style=""font-size:60px;"">+</div>","null","fixation",""
"","","","","","video-keyboard-response","244","371322","0.0-5.0-1.52","2884","[""videos/slow_high_c1_pink.mov""]","f","response","false"
"","","","","","html-keyboard-response","245","372074","0.0-5.0-0.53","null","<div style=""font-size:60px;"">+</div>","null","fixation",""
"","","","","","video-keyboard-response","246","378220","0.0-5.0-1.53","6144","[""videos/med_med_c7_tan_mirror.mov""]","f","response","false"
"","","","","","html-keyboard-response","247","378721","0.0-5.0-0.54","null","<div style=""font-size:60px;"">+</div>","null","fixation",""
"","","","","","video-keyboard-response","248","380808","0.0-5.0-1.54","2086","[""videos/slow_low_c5_pink_mirror.mov""]","j","response","false"
"","","","","","html-keyboard-response","249","393157","0.0-5.0-2.54-0.54","12348","<p>You can take a quick break now if you need it.</p>
      <p>Press the spacebar to continue.</p>"," ","",""
"","","","","","html-keyboard-response","250","393659","0.0-5.0-0.55","null","<div style=""font-size:60px;"">+</div>","null","fixation",""
"","","","","","video-keyboard-response","251","398786","0.0-5.0-1.55","5125","[""videos/fast_low_c14_pink.mov""]","f","response","false"
"","","","","","html-keyboard-response","252","399788","0.0-5.0-0.56","null","<div style=""font-size:60px;"">+</div>","null","fixation",""
"","","","","","video-keyboard-response","253","403430","0.0-5.0-1.56","3640","[""videos/fast_low_c16_teal.mov""]","f","response","false"
"","","","","","html-keyboard-response","254","404432","0.0-5.0-0.57","null","<div style=""font-size:60px;"">+</div>","null","fixation",""
"","","","","","video-keyboard-response","255","405406","0.0-5.0-1.57","973","[""videos/med_low_c16_tan.mov""]","j","response","false"
"","","","","","html-keyboard-response","256","405907","0.0-5.0-0.58","null","<div style=""font-size:60px;"">+</div>","null","fixation",""
"","","","","","video-keyboard-response","257","407832","0.0-5.0-1.58","1923","[""videos/fast_high_c13_pink_mirror.mov""]","f","response","false"
"","","","","","html-keyboard-response","258","408585","0.0-5.0-0.59","null","<div style=""font-size:60px;"">+</div>","null","fixation",""
"","","","","","video-keyboard-response","259","409654","0.0-5.0-1.59","1068","[""videos/fast_high_c8_purple_mirror.mov""]","f","response","false"
"","","","","","html-keyboard-response","260","410656","0.0-5.0-0.60","null","<div style=""font-size:60px;"">+</div>","null","fixation",""
"","","","","","video-keyboard-response","261","411856","0.0-5.0-1.60","1199","[""videos/med_low_c9_pink.mov""]","f","response","false"
"","","","","","html-keyboard-response","262","412358","0.0-5.0-0.61","null","<div style=""font-size:60px;"">+</div>","null","fixation",""
"","","","","","video-keyboard-response","263","413217","0.0-5.0-1.61","858","[""videos/med_med_c6_tan_mirror.mov""]","f","response","false"
"","","","","","html-keyboard-response","264","413719","0.0-5.0-0.62","null","<div style=""font-size:60px;"">+</div>","null","fixation",""
"","","","","","video-keyboard-response","265","415135","0.0-5.0-1.62","1414","[""videos/fast_low_c15_purple.mov""]","f","response","false"
"","","","","","html-keyboard-response","266","415887","0.0-5.0-0.63","null","<div style=""font-size:60px;"">+</div>","null","fixation",""
"","","","","","video-keyboard-response","267","417003","0.0-5.0-1.63","1114","[""videos/slow_med_c3_purple_mirror.mov""]","f","response","false"
"","","","","","html-keyboard-response","268","417504","0.0-5.0-0.64","null","<div style=""font-size:60px;"">+</div>","null","fixation",""
"","","","","","video-keyboard-response","269","418431","0.0-5.0-1.64","926","[""videos/slow_high_c3_tan_mirror.mov""]","f","response","false"
"","","","","","html-keyboard-response","270","419183","0.0-5.0-0.65","null","<div style=""font-size:60px;"">+</div>","null","fixation",""
"","","","","","video-keyboard-response","271","420391","0.0-5.0-1.65","1207","[""videos/fast_med_c16_tan_mirror.mov""]","f","response","false"
"","","","","","html-keyboard-response","272","421143","0.0-5.0-0.66","null","<div style=""font-size:60px;"">+</div>","null","fixation",""
"","","","","","video-keyboard-response","273","423961","0.0-5.0-1.66","2816","[""videos/med_low_c9_purple_mirror.mov""]","f","response","false"
"","","","","","html-keyboard-response","274","424962","0.0-5.0-0.67","null","<div style=""font-size:60px;"">+</div>","null","fixation",""
"","","","","","video-keyboard-response","275","426015","0.0-5.0-1.67","1051","[""videos/slow_med_c4_purple_mirror.mov""]","f","response","false"
"","","","","","html-keyboard-response","276","426766","0.0-5.0-0.68","null","<div style=""font-size:60px;"">+</div>","null","fixation",""
"","","","","","video-keyboard-response","277","427972","0.0-5.0-1.68","1205","[""videos/med_low_c2_pink.mov""]","f","response","false"
"","","","","","html-keyboard-response","278","428724","0.0-5.0-0.69","null","<div style=""font-size:60px;"">+</div>","null","fixation",""
"","","","","","video-keyboard-response","279","429997","0.0-5.0-1.69","1271","[""videos/fast_med_c17_pink_mirror.mov""]","f","response","false"
"","","","","","html-keyboard-response","280","430749","0.0-5.0-0.70","null","<div style=""font-size:60px;"">+</div>","null","fixation",""
"","","","","","video-keyboard-response","281","431926","0.0-5.0-1.70","1176","[""videos/slow_low_c4_teal_mirror.mov""]","f","response","false"
"","","","","","html-keyboard-response","282","432678","0.0-5.0-0.71","null","<div style=""font-size:60px;"">+</div>","null","fixation",""
"","","","","","video-keyboard-response","283","433843","0.0-5.0-1.71","1163","[""videos/slow_low_c2_pink_mirror.mov""]","f","response","false"
"","","","","","html-keyboard-response","284","434844","0.0-5.0-0.72","null","<div style=""font-size:60px;"">+</div>","null","fixation",""
"","","","","","video-keyboard-response","285","436190","0.0-5.0-1.72","1344","[""videos/slow_low_c12_teal_mirror.mov""]","j","response","false"
"","","","","","html-keyboard-response","286","437192","0.0-5.0-0.73","null","<div style=""font-size:60px;"">+</div>","null","fixation",""
"","","","","","video-keyboard-response","287","439770","0.0-5.0-1.73","2577","[""videos/fast_high_c17_purple_mirror.mov""]","f","response","false"
"","","","","","html-keyboard-response","288","440522","0.0-5.0-0.74","null","<div style=""font-size:60px;"">+</div>","null","fixation",""
"","","","","","video-keyboard-response","289","441648","0.0-5.0-1.74","1125","[""videos/med_high_c5_pink.mov""]","f","response","false"
"","","","","","html-keyboard-response","290","442623","0.0-5.0-2.74-0.74","974","<p>You can take a quick break now if you need it.</p>
      <p>Press the spacebar to continue.</p>"," ","",""
"","","","","","html-keyboard-response","291","443124","0.0-5.0-0.75","null","<div style=""font-size:60px;"">+</div>","null","fixation",""
"","","","","","video-keyboard-response","292","444328","0.0-5.0-1.75","1202","[""videos/slow_med_c2_teal_mirror.mov""]","f","response","false"
"","","","","","html-keyboard-response","293","445080","0.0-5.0-0.76","null","<div style=""font-size:60px;"">+</div>","null","fixation",""
"","","","","","video-keyboard-response","294","446502","0.0-5.0-1.76","1420","[""videos/med_med_c11_purple_mirror.mov""]","j","response","false"
"","","","","","html-keyboard-response","295","447254","0.0-5.0-0.77","null","<div style=""font-size:60px;"">+</div>","null","fixation",""
"","","","","","video-keyboard-response","296","448375","0.0-5.0-1.77","1120","[""videos/med_med_c7_pink.mov""]","f","response","false"
"","","","","","html-keyboard-response","297","448876","0.0-5.0-0.78","null","<div style=""font-size:60px;"">+</div>","null","fixation",""
"","","","","","video-keyboard-response","298","451072","0.0-5.0-1.78","2194","[""videos/med_low_c10_pink.mov""]","f","response","false"
"","","","","","html-keyboard-response","299","451823","0.0-5.0-0.79","null","<div style=""font-size:60px;"">+</div>","null","fixation",""
"","","","","","video-keyboard-response","300","452834","0.0-5.0-1.79","1010","[""videos/med_med_c4_pink.mov""]","f","response","false"
"","","","","","html-keyboard-response","301","453586","0.0-5.0-0.80","null","<div style=""font-size:60px;"">+</div>","null","fixation",""
"","","","","","video-keyboard-response","302","454708","0.0-5.0-1.80","1121","[""videos/slow_med_c3_tan.mov""]","f","response","false"
"","","","","","html-keyboard-response","303","455461","0.0-5.0-0.81","null","<div style=""font-size:60px;"">+</div>","null","fixation",""
"","","","","","video-keyboard-response","304","456718","0.0-5.0-1.81","1255","[""videos/slow_low_c3_teal.mov""]","f","response","false"
"","","","","","html-keyboard-response","305","457219","0.0-5.0-0.82","null","<div style=""font-size:60px;"">+</div>","null","fixation",""
"","","","","","video-keyboard-response","306","458195","0.0-5.0-1.82","974","[""videos/fast_med_c11_pink.mov""]","f","response","false"
"","","","","","html-keyboard-response","307","458948","0.0-5.0-0.83","null","<div style=""font-size:60px;"">+</div>","null","fixation",""
"","","","","","video-keyboard-response","308","460248","0.0-5.0-1.83","1299","[""videos/slow_med_c10_purple.mov""]","j","response","false"
"","","","","","html-keyboard-response","309","461251","0.0-5.0-0.84","null","<div style=""font-size:60px;"">+</div>","null","fixation",""
"","","","","","video-keyboard-response","310","462663","0.0-5.0-1.84","1411","[""videos/fast_med_c6_pink.mov""]","f","response","false"
"","","","","","html-keyboard-response","311","463415","0.0-5.0-0.85","null","<div style=""font-size:60px;"">+</div>","null","fixation",""
"","","","","","video-keyboard-response","312","465806","0.0-5.0-1.85","2390","[""videos/med_high_c7_teal_mirror.mov""]","f","response","false"
"","","","","","html-keyboard-response","313","466308","0.0-5.0-0.86","null","<div style=""font-size:60px;"">+</div>","null","fixation",""
"","","","","","video-keyboard-response","314","467376","0.0-5.0-1.86","1067","[""videos/fast_med_c14_purple_mirror.mov""]","f","response","false"
"","","","","","html-keyboard-response","315","468128","0.0-5.0-0.87","null","<div style=""font-size:60px;"">+</div>","null","fixation",""
"","","","","","video-keyboard-response","316","469302","0.0-5.0-1.87","1173","[""videos/fast_low_c12_teal.mov""]","f","response","false"
"","","","","","html-keyboard-response","317","469804","0.0-5.0-0.88","null","<div style=""font-size:60px;"">+</div>","null","fixation",""
"","","","","","video-keyboard-response","318","471107","0.0-5.0-1.88","1302","[""videos/slow_high_c2_purple_mirror.mov""]","f","response","false"
"","","","","","html-keyboard-response","319","471859","0.0-5.0-0.89","null","<div style=""font-size:60px;"">+</div>","null","fixation",""
"","","","","","video-keyboard-response","320","473054","0.0-5.0-1.89","1193","[""videos/med_low_c5_pink.mov""]","f","response","false"
"","","","","","html-keyboard-response","321","473556","0.0-5.0-0.90","null","<div style=""font-size:60px;"">+</div>","null","fixation",""
"","","","","","video-keyboard-response","322","476714","0.0-5.0-1.90","3156","[""videos/med_high_c7_tan.mov""]","j","response","false"
"","","","","","html-keyboard-response","323","477215","0.0-5.0-0.91","null","<div style=""font-size:60px;"">+</div>","null","fixation",""
"","","","","","video-keyboard-response","324","478529","0.0-5.0-1.91","1312","[""videos/slow_high_c1_tan.mov""]","f","response","false"
"","","","","","html-keyboard-response","325","479281","0.0-5.0-0.92","null","<div style=""font-size:60px;"">+</div>","null","fixation",""
"","","","","","video-keyboard-response","326","480836","0.0-5.0-1.92","1554","[""videos/med_low_c12_tan.mov""]","j","response","false"
"","","","","","html-keyboard-response","327","481343","0.0-5.0-0.93","null","<div style=""font-size:60px;"">+</div>","null","fixation",""
"","","","","","video-keyboard-response","328","482561","0.0-5.0-1.93","1217","[""videos/med_low_c7_pink.mov""]","f","response","false"
"","","","","","html-keyboard-response","329","483063","0.0-5.0-0.94","null","<div style=""font-size:60px;"">+</div>","null","fixation",""
"","","","","","video-keyboard-response","330","484502","0.0-5.0-1.94","1437","[""videos/med_med_c11_pink.mov""]","j","response","false"
"","","","","","html-keyboard-response","331","485454","0.0-5.0-2.94-0.94","952","<p>You can take a quick break now if you need it.</p>
      <p>Press the spacebar to continue.</p>"," ","",""
"","","","","","html-keyboard-response","332","486207","0.0-5.0-0.95","null","<div style=""font-size:60px;"">+</div>","null","fixation",""
"","","","","","video-keyboard-response","333","487477","0.0-5.0-1.95","1269","[""videos/slow_med_c5_teal.mov""]","f","response","false"
"","","","","","html-keyboard-response","334","488479","0.0-5.0-0.96","null","<div style=""font-size:60px;"">+</div>","null","fixation",""
"","","","","","video-keyboard-response","335","489556","0.0-5.0-1.96","1076","[""videos/slow_med_c3_teal_mirror.mov""]","f","response","false"
"","","","","","html-keyboard-response","336","490057","0.0-5.0-0.97","null","<div style=""font-size:60px;"">+</div>","null","fixation",""
"","","","","","video-keyboard-response","337","491146","0.0-5.0-1.97","1088","[""videos/med_high_c5_purple_mirror.mov""]","f","response","false"
"","","","","","html-keyboard-response","338","491899","0.0-5.0-0.98","null","<div style=""font-size:60px;"">+</div>","null","fixation",""
"","","","","","video-keyboard-response","339","493661","0.0-5.0-1.98","1761","[""videos/fast_med_c15_teal_mirror.mov""]","f","response","false"
"","","","","","html-keyboard-response","340","494414","0.0-5.0-0.99","null","<div style=""font-size:60px;"">+</div>","null","fixation",""
"","","","","","video-keyboard-response","341","496062","0.0-5.0-1.99","1647","[""videos/med_low_c12_purple_mirror.mov""]","j","response","false"
"","","","","","html-keyboard-response","342","496563","0.0-5.0-0.100","null","<div style=""font-size:60px;"">+</div>","null","fixation",""
"","","","","","video-keyboard-response","343","497961","0.0-5.0-1.100","1396","[""videos/slow_low_c7_pink.mov""]","j","response","false"
"","","","","","html-keyboard-response","344","498963","0.0-5.0-0.101","null","<div style=""font-size:60px;"">+</div>","null","fixation",""
"","","","","","video-keyboard-response","345","500485","0.0-5.0-1.101","1521","[""videos/fast_high_c13_teal.mov""]","j","response","false"
"","","","","","html-keyboard-response","346","501486","0.0-5.0-0.102","null","<div style=""font-size:60px;"">+</div>","null","fixation",""
"","","","","","video-keyboard-response","347","502928","0.0-5.0-1.102","1440","[""videos/slow_med_c10_pink_mirror.mov""]","j","response","false"
"","","","","","html-keyboard-response","348","503681","0.0-5.0-0.103","null","<div style=""font-size:60px;"">+</div>","null","fixation",""
"","","","","","video-keyboard-response","349","505099","0.0-5.0-1.103","1416","[""videos/med_low_c8_tan.mov""]","j","response","false"
"","","","","","html-keyboard-response","350","505851","0.0-5.0-0.104","null","<div style=""font-size:60px;"">+</div>","null","fixation",""
"","","","","","video-keyboard-response","351","507220","0.0-5.0-1.104","1368","[""videos/fast_low_c16_pink.mov""]","f","response","false"
"","","","","","html-keyboard-response","352","507972","0.0-5.0-0.105","null","<div style=""font-size:60px;"">+</div>","null","fixation",""
"","","","","","video-keyboard-response","353","509079","0.0-5.0-1.105","1105","[""videos/fast_med_c15_tan.mov""]","f","response","false"
"","","","","","html-keyboard-response","354","509831","0.0-5.0-0.106","null","<div style=""font-size:60px;"">+</div>","null","fixation",""
"","","","","","video-keyboard-response","355","511108","0.0-5.0-1.106","1276","[""videos/slow_high_c2_teal.mov""]","f","response","false"
"","","","","","html-keyboard-response","356","511861","0.0-5.0-0.107","null","<div style=""font-size:60px;"">+</div>","null","fixation",""
"","","","","","video-keyboard-response","357","514059","0.0-5.0-1.107","2197","[""videos/med_low_c8_pink_mirror.mov""]","j","response","false"
"","","","","","html-keyboard-response","358","514561","0.0-5.0-0.108","null","<div style=""font-size:60px;"">+</div>","null","fixation",""
"","","","","","video-keyboard-response","359","515851","0.0-5.0-1.108","1289","[""videos/med_med_c9_pink.mov""]","f","response","false"
"","","","","","html-keyboard-response","360","516853","0.0-5.0-0.109","null","<div style=""font-size:60px;"">+</div>","null","fixation",""
"","","","","","video-keyboard-response","361","518157","0.0-5.0-1.109","1302","[""videos/slow_high_c1_teal_mirror.mov""]","f","response","false"
"","","","","","html-keyboard-response","362","519159","0.0-5.0-0.110","null","<div style=""font-size:60px;"">+</div>","null","fixation",""
"","","","","","video-keyboard-response","363","520684","0.0-5.0-1.110","1524","[""videos/med_high_c3_pink_mirror.mov""]","f","response","false"
"","","","","","html-keyboard-response","364","521437","0.0-5.0-0.111","null","<div style=""font-size:60px;"">+</div>","null","fixation",""
"","","","","","video-keyboard-response","365","522508","0.0-5.0-1.111","1070","[""videos/fast_med_c13_purple_mirror.mov""]","f","response","false"
"","","","","","html-keyboard-response","366","523510","0.0-5.0-0.112","null","<div style=""font-size:60px;"">+</div>","null","fixation",""
"","","","","","video-keyboard-response","367","524719","0.0-5.0-1.112","1208","[""videos/med_high_c3_purple.mov""]","f","response","false"
"","","","","","html-keyboard-response","368","525220","0.0-5.0-0.113","null","<div style=""font-size:60px;"">+</div>","null","fixation",""
"","","","","","video-keyboard-response","369","526396","0.0-5.0-1.113","1174","[""videos/fast_low_c5_teal.mov""]","f","response","false"
"","","","","","html-keyboard-response","370","527148","0.0-5.0-0.114","null","<div style=""font-size:60px;"">+</div>","null","fixation",""
"","","","","","video-keyboard-response","371","528818","0.0-5.0-1.114","1668","[""videos/fast_low_c17_tan_mirror.mov""]","j","response","false"
"","","","","","html-keyboard-response","372","530603","0.0-5.0-2.114-0.114","1785","<p>You can take a quick break now if you need it.</p>
      <p>Press the spacebar to continue.</p>"," ","",""
"","","","","","html-keyboard-response","373","531356","0.0-5.0-0.115","null","<div style=""font-size:60px;"">+</div>","null","fixation",""
"","","","","","video-keyboard-response","374","532740","0.0-5.0-1.115","1383","[""videos/med_low_c5_tan_mirror.mov""]","f","response","false"
"","","","","","html-keyboard-response","375","533242","0.0-5.0-0.116","null","<div style=""font-size:60px;"">+</div>","null","fixation",""
"","","","","","video-keyboard-response","376","534786","0.0-5.0-1.116","1544","[""videos/med_high_c8_purple.mov""]","j","response","false"
"","","","","","html-keyboard-response","377","535538","0.0-5.0-0.117","null","<div style=""font-size:60px;"">+</div>","null","fixation",""
"","","","","","video-keyboard-response","378","537159","0.0-5.0-1.117","1619","[""videos/slow_low_c5_purple.mov""]","j","response","false"
"","","","","","html-keyboard-response","379","537660","0.0-5.0-0.118","null","<div style=""font-size:60px;"">+</div>","null","fixation",""
"","","","","","video-keyboard-response","380","539250","0.0-5.0-1.118","1589","[""videos/fast_low_c17_purple_mirror.mov""]","j","response","false"
"","","","","","html-keyboard-response","381","540002","0.0-5.0-0.119","null","<div style=""font-size:60px;"">+</div>","null","fixation",""
"","","","","","video-keyboard-response","382","541675","0.0-5.0-1.119","1672","[""videos/med_high_c10_teal_mirror.mov""]","j","response","false"
"","","","","","html-keyboard-response","383","542176","0.0-5.0-0.120","null","<div style=""font-size:60px;"">+</div>","null","fixation",""
"","","","","","video-keyboard-response","384","543465","0.0-5.0-1.120","1288","[""videos/slow_high_c6_teal_mirror.mov""]","j","response","false"
"","","","","","html-keyboard-response","385","544216","0.0-5.0-0.121","null","<div style=""font-size:60px;"">+</div>","null","fixation",""
"","","","","","video-keyboard-response","386","545469","0.0-5.0-1.121","1251","[""videos/fast_high_c12_teal_mirror.mov""]","f","response","false"
"","","","","","html-keyboard-response","387","546471","0.0-5.0-0.122","null","<div style=""font-size:60px;"">+</div>","null","fixation",""
"","","","","","video-keyboard-response","388","548161","0.0-5.0-1.122","1688","[""videos/med_high_c10_purple.mov""]","j","response","false"
"","","","","","html-keyboard-response","389","549163","0.0-5.0-0.123","null","<div style=""font-size:60px;"">+</div>","null","fixation",""
"","","","","","video-keyboard-response","390","550729","0.0-5.0-1.123","1565","[""videos/fast_high_c11_teal_mirror.mov""]","f","response","false"
"","","","","","html-keyboard-response","391","551732","0.0-5.0-0.124","null","<div style=""font-size:60px;"">+</div>","null","fixation",""
"","","","","","video-keyboard-response","392","553196","0.0-5.0-1.124","1463","[""videos/slow_med_c5_pink_mirror.mov""]","f","response","false"
"","","","","","html-keyboard-response","393","553698","0.0-5.0-0.125","null","<div style=""font-size:60px;"">+</div>","null","fixation",""
"","","","","","video-keyboard-response","394","555035","0.0-5.0-1.125","1336","[""videos/fast_med_c13_teal.mov""]","f","response","false"
"","","","","","html-keyboard-response","395","556037","0.0-5.0-0.126","null","<div style=""font-size:60px;"">+</div>","null","fixation",""
"","","","","","video-keyboard-response","396","557144","0.0-5.0-1.126","1105","[""videos/slow_high_c13_purple.mov""]","j","response","false"
"","","","","","html-keyboard-response","397","557896","0.0-5.0-0.127","null","<div style=""font-size:60px;"">+</div>","null","fixation",""
"","","","","","video-keyboard-response","398","559131","0.0-5.0-1.127","1233","[""videos/slow_high_c4_purple_mirror.mov""]","f","response","false"
"","","","","","html-keyboard-response","399","560133","0.0-5.0-0.128","null","<div style=""font-size:60px;"">+</div>","null","fixation",""
"","","","","","video-keyboard-response","400","561470","0.0-5.0-1.128","1335","[""videos/fast_high_c17_tan.mov""]","f","response","false"
"","","","","","html-keyboard-response","401","562222","0.0-5.0-0.129","null","<div style=""font-size:60px;"">+</div>","null","fixation",""
"","","","","","video-keyboard-response","402","563629","0.0-5.0-1.129","1406","[""videos/med_high_c1_pink.mov""]","f","response","false"
"","","","","","html-keyboard-response","403","564380","0.0-5.0-0.130","null","<div style=""font-size:60px;"">+</div>","null","fixation",""
"","","","","","video-keyboard-response","404","565357","0.0-5.0-1.130","975","[""videos/fast_high_c11_purple.mov""]","f","response","false"
"","","","","","html-keyboard-response","405","565858","0.0-5.0-0.131","null","<div style=""font-size:60px;"">+</div>","null","fixation",""
"","","","","","video-keyboard-response","406","566903","0.0-5.0-1.131","1043","[""videos/fast_med_c17_tan.mov""]","f","response","false"
"","","","","","html-keyboard-response","407","567906","0.0-5.0-0.132","null","<div style=""font-size:60px;"">+</div>","null","fixation",""
"","","","","","video-keyboard-response","408","568902","0.0-5.0-1.132","995","[""videos/fast_med_c16_teal_mirror.mov""]","f","response","false"
"","","","","","html-keyboard-response","409","569405","0.0-5.0-0.133","null","<div style=""font-size:60px;"">+</div>","null","fixation",""
"","","","","","video-keyboard-response","410","570435","0.0-5.0-1.133","1029","[""videos/slow_low_c1_tan_mirror.mov""]","f","response","false"
"","","","","","html-keyboard-response","411","571438","0.0-5.0-0.134","null","<div style=""font-size:60px;"">+</div>","null","fixation",""
"","","","","","video-keyboard-response","412","572586","0.0-5.0-1.134","1147","[""videos/med_med_c4_tan_mirror.mov""]","f","response","false"
"","","","","","html-keyboard-response","413","573420","0.0-5.0-2.134-0.134","833","<p>You can take a quick break now if you need it.</p>
      <p>Press the spacebar to continue.</p>"," ","",""
"","","","","","html-keyboard-response","414","573922","0.0-5.0-0.135","null","<div style=""font-size:60px;"">+</div>","null","fixation",""
"","","","","","video-keyboard-response","415","574996","0.0-5.0-1.135","1072","[""videos/fast_med_c16_pink.mov""]","f","response","false"
"","","","","","html-keyboard-response","416","575748","0.0-5.0-0.136","null","<div style=""font-size:60px;"">+</div>","null","fixation",""
"","","","","","video-keyboard-response","417","576702","0.0-5.0-1.136","953","[""videos/fast_high_c10_tan_mirror.mov""]","f","response","false"
"","","","","","html-keyboard-response","418","577455","0.0-5.0-0.137","null","<div style=""font-size:60px;"">+</div>","null","fixation",""
"","","","","","video-keyboard-response","419","578417","0.0-5.0-1.137","960","[""videos/slow_high_c13_tan_mirror.mov""]","j","response","false"
"","","","","","html-keyboard-response","420","579168","0.0-5.0-0.138","null","<div style=""font-size:60px;"">+</div>","null","fixation",""
"","","","","","video-keyboard-response","421","580170","0.0-5.0-1.138","1000","[""videos/med_med_c14_teal_mirror.mov""]","j","response","false"
"","","","","","html-keyboard-response","422","581173","0.0-5.0-0.139","null","<div style=""font-size:60px;"">+</div>","null","fixation",""
"","","","","","video-keyboard-response","423","582417","0.0-5.0-1.139","1243","[""videos/slow_high_c2_pink.mov""]","f","response","false"
"","","","","","html-keyboard-response","424","583169","0.0-5.0-0.140","null","<div style=""font-size:60px;"">+</div>","null","fixation",""
"","","","","","video-keyboard-response","425","584343","0.0-5.0-1.140","1172","[""videos/fast_high_c15_purple.mov""]","f","response","false"
"","","","","","html-keyboard-response","426","585345","0.0-5.0-0.141","null","<div style=""font-size:60px;"">+</div>","null","fixation",""
"","","","","","video-keyboard-response","427","586866","0.0-5.0-1.141","1519","[""videos/fast_high_c4_tan_mirror.mov""]","f","response","false"
"","","","","","html-keyboard-response","428","587618","0.0-5.0-0.142","null","<div style=""font-size:60px;"">+</div>","null","fixation",""
"","","","","","video-keyboard-response","429","589345","0.0-5.0-1.142","1726","[""videos/med_high_c8_teal_mirror.mov""]","j","response","false"
"","","","","","html-keyboard-response","430","590097","0.0-5.0-0.143","null","<div style=""font-size:60px;"">+</div>","null","fixation",""
"","","","","","video-keyboard-response","431","591343","0.0-5.0-1.143","1244","[""videos/slow_high_c1_purple_mirror.mov""]","f","response","false"
"","","","","","html-keyboard-response","432","592622","0.0-6.0","1280","<p>You can take a quick break now if you need it.</p>
      <p>Press the spacebar to continue.</p>"," ","",""
"","","","","","html-keyboard-response","433","593374","0.0-7.0-0.0","null","<div style=""font-size:60px;"">+</div>","null","fixation",""
"","","","","","video-keyboard-response","434","595235","0.0-7.0-1.0","1860","[""videos/slow_high_c13_white.mov""]","j","response","false"
"","","","","","html-keyboard-response","435","595987","0.0-7.0-0.1","null","<div style=""font-size:60px;"">+</div>","null","fixation",""
"","","","","","video-keyboard-response","436","597386","0.0-7.0-1.1","1398","[""videos/slow_high_c1_white_mirror.mov""]","f","response","false"
"","","","","","html-keyboard-response","437","597887","0.0-7.0-0.2","null","<div style=""font-size:60px;"">+</div>","null","fixation",""
"","","","","","video-keyboard-response","438","599362","0.0-7.0-1.2","1473","[""videos/med_high_c13_white.mov""]","j","response","false"
"","","","","","html-keyboard-response","439","600114","0.0-7.0-0.3","null","<div style=""font-size:60px;"">+</div>","null","fixation",""
"","","","","","video-keyboard-response","440","601467","0.0-7.0-1.3","1352","[""videos/fast_high_c10_white_mirror.mov""]","f","response","false"
"","","","","","html-keyboard-response","441","601968","0.0-7.0-0.4","null","<div style=""font-size:60px;"">+</div>","null","fixation",""
"","","","","","video-keyboard-response","442","603171","0.0-7.0-1.4","1201","[""videos/med_med_c8_white.mov""]","f","response","false"
"","","","","","html-keyboard-response","443","603672","0.0-7.0-0.5","null","<div style=""font-size:60px;"">+</div>","null","fixation",""
"","","","","","video-keyboard-response","444","605507","0.0-7.0-1.5","1833","[""videos/fast_low_c17_white.mov""]","j","response","false"
"","","","","","html-keyboard-response","445","606509","0.0-7.0-0.6","null","<div style=""font-size:60px;"">+</div>","null","fixation",""
"","","","","","video-keyboard-response","446","608131","0.0-7.0-1.6","1620","[""videos/med_med_c9_white_mirror.mov""]","f","response","false"
"","","","","","html-keyboard-response","447","609133","0.0-7.0-0.7","null","<div style=""font-size:60px;"">+</div>","null","fixation",""
"","","","","","video-keyboard-response","448","610184","0.0-7.0-1.7","1049","[""videos/slow_high_c3_white_mirror.mov""]","f","response","false"
"","","","","","html-keyboard-response","449","611186","0.0-7.0-0.8","null","<div style=""font-size:60px;"">+</div>","null","fixation",""
"","","","","","video-keyboard-response","450","612286","0.0-7.0-1.8","1099","[""videos/slow_low_c7_white.mov""]","j","response","false"
"","","","","","html-keyboard-response","451","613039","0.0-7.0-0.9","null","<div style=""font-size:60px;"">+</div>","null","fixation",""
"","","","","","video-keyboard-response","452","614912","0.0-7.0-1.9","1871","[""videos/fast_high_c15_white_mirror.mov""]","j","response","false"
"","","","","","html-keyboard-response","453","615664","0.0-7.0-0.10","null","<div style=""font-size:60px;"">+</div>","null","fixation",""
"","","","","","video-keyboard-response","454","617176","0.0-7.0-1.10","1511","[""videos/fast_high_c13_white_mirror.mov""]","j","response","false"
"","","","","","html-keyboard-response","455","618199","0.0-7.0-2.10-0.10","1022","<p>You can take a quick break now if you need it.</p>
      <p>Press the spacebar to continue.</p>"," ","",""
"","","","","","html-keyboard-response","456","618699","0.0-7.0-0.11","null","<div style=""font-size:60px;"">+</div>","null","fixation",""
"","","","","","video-keyboard-response","457","619852","0.0-7.0-1.11","1151","[""videos/slow_med_c10_white_mirror.mov""]","j","response","false"
"","","","","","html-keyboard-response","458","620854","0.0-7.0-0.12","null","<div style=""font-size:60px;"">+</div>","null","fixation",""
"","","","","","video-keyboard-response","459","622049","0.0-7.0-1.12","1194","[""videos/slow_med_c7_white_mirror.mov""]","j","response","false"
"","","","","","html-keyboard-response","460","623051","0.0-7.0-0.13","null","<div style=""font-size:60px;"">+</div>","null","fixation",""
"","","","","","video-keyboard-response","461","624172","0.0-7.0-1.13","1119","[""videos/med_high_c6_white_mirror.mov""]","f","response","false"
"","","","","","html-keyboard-response","462","624924","0.0-7.0-0.14","null","<div style=""font-size:60px;"">+</div>","null","fixation",""
"","","","","","video-keyboard-response","463","626298","0.0-7.0-1.14","1372","[""videos/fast_med_c16_white.mov""]","f","response","false"
"","","","","","html-keyboard-response","464","626799","0.0-7.0-0.15","null","<div style=""font-size:60px;"">+</div>","null","fixation",""
"","","","","","video-keyboard-response","465","628031","0.0-7.0-1.15","1230","[""videos/med_high_c5_white.mov""]","f","response","false"
"","","","","","html-keyboard-response","466","628532","0.0-7.0-0.16","null","<div style=""font-size:60px;"">+</div>","null","fixation",""
"","","","","","video-keyboard-response","467","629716","0.0-7.0-1.16","1183","[""videos/med_high_c7_white.mov""]","f","response","false"
"","","","","","html-keyboard-response","468","630218","0.0-7.0-0.17","null","<div style=""font-size:60px;"">+</div>","null","fixation",""
"","","","","","video-keyboard-response","469","631859","0.0-7.0-1.17","1640","[""videos/slow_high_c6_white_mirror.mov""]","j","response","false"
"","","","","","html-keyboard-response","470","632861","0.0-7.0-0.18","null","<div style=""font-size:60px;"">+</div>","null","fixation",""
"","","","","","video-keyboard-response","471","634167","0.0-7.0-1.18","1305","[""videos/fast_low_c15_white_mirror.mov""]","f","response","false"
"","","","","","html-keyboard-response","472","635170","0.0-7.0-0.19","null","<div style=""font-size:60px;"">+</div>","null","fixation",""
"","","","","","video-keyboard-response","473","636448","0.0-7.0-1.19","1277","[""videos/med_med_c4_white.mov""]","f","response","false"
"","","","","","html-keyboard-response","474","636950","0.0-7.0-0.20","null","<div style=""font-size:60px;"">+</div>","null","fixation",""
"","","","","","video-keyboard-response","475","637921","0.0-7.0-1.20","970","[""videos/slow_low_c12_white_mirror.mov""]","j","response","false"
"","","","","","html-keyboard-response","476","638673","0.0-7.0-0.21","null","<div style=""font-size:60px;"">+</div>","null","fixation",""
"","","","","","video-keyboard-response","477","639681","0.0-7.0-1.21","1006","[""videos/fast_high_c8_white.mov""]","f","response","false"
"","","","","","html-keyboard-response","478","640434","0.0-7.0-0.22","null","<div style=""font-size:60px;"">+</div>","null","fixation",""
"","","","","","video-keyboard-response","479","641836","0.0-7.0-1.22","1401","[""videos/slow_low_c5_white.mov""]","f","response","false"
"","","","","","html-keyboard-response","480","642588","0.0-7.0-0.23","null","<div style=""font-size:60px;"">+</div>","null","fixation",""
"","","","","","video-keyboard-response","481","643726","0.0-7.0-1.23","1136","[""videos/fast_high_c11_white.mov""]","f","response","false"
"","","","","","html-keyboard-response","482","644728","0.0-7.0-0.24","null","<div style=""font-size:60px;"">+</div>","null","fixation",""
"","","","","","video-keyboard-response","483","646129","0.0-7.0-1.24","1400","[""videos/med_med_c14_white.mov""]","j","response","false"
"","","","","","html-keyboard-response","484","647132","0.0-7.0-0.25","null","<div style=""font-size:60px;"">+</div>","null","fixation",""
"","","","","","video-keyboard-response","485","648327","0.0-7.0-1.25","1194","[""videos/med_med_c7_white_mirror.mov""]","f","response","false"
"","","","","","html-keyboard-response","486","648829","0.0-7.0-0.26","null","<div style=""font-size:60px;"">+</div>","null","fixation",""
"","","","","","video-keyboard-response","487","649999","0.0-7.0-1.26","1168","[""videos/med_med_c11_white_mirror.mov""]","j","response","false"
"","","","","","html-keyboard-response","488","650750","0.0-7.0-0.27","null","<div style=""font-size:60px;"">+</div>","null","fixation",""
"","","","","","video-keyboard-response","489","651580","0.0-7.0-1.27","829","[""videos/slow_med_c5_white.mov""]","f","response","false"
"","","","","","html-keyboard-response","490","652081","0.0-7.0-0.28","null","<div style=""font-size:60px;"">+</div>","null","fixation",""
"","","","","","video-keyboard-response","491","653326","0.0-7.0-1.28","1243","[""videos/slow_med_c2_white_mirror.mov""]","f","response","false"
"","","","","","html-keyboard-response","492","654328","0.0-7.0-0.29","null","<div style=""font-size:60px;"">+</div>","null","fixation",""
"","","","","","video-keyboard-response","493","655806","0.0-7.0-1.29","1476","[""videos/med_low_c10_white.mov""]","f","response","false"
"","","","","","html-keyboard-response","494","656558","0.0-7.0-0.30","null","<div style=""font-size:60px;"">+</div>","null","fixation",""
"","","","","","video-keyboard-response","495","657682","0.0-7.0-1.30","1123","[""videos/med_high_c8_white_mirror.mov""]","f","response","false"
"","","","","","html-keyboard-response","496","659690","0.0-7.0-2.30-0.30","2007","<p>You can take a quick break now if you need it.</p>
      <p>Press the spacebar to continue.</p>"," ","",""
"","","","","","html-keyboard-response","497","660191","0.0-7.0-0.31","null","<div style=""font-size:60px;"">+</div>","null","fixation",""
"","","","","","video-keyboard-response","498","661178","0.0-7.0-1.31","986","[""videos/fast_high_c12_white.mov""]","f","response","false"
"","","","","","html-keyboard-response","499","661930","0.0-7.0-0.32","null","<div style=""font-size:60px;"">+</div>","null","fixation",""
"","","","","","video-keyboard-response","500","663136","0.0-7.0-1.32","1205","[""videos/med_med_c1_white.mov""]","f","response","false"
"","","","","","html-keyboard-response","501","663639","0.0-7.0-0.33","null","<div style=""font-size:60px;"">+</div>","null","fixation",""
"","","","","","video-keyboard-response","502","664730","0.0-7.0-1.33","1090","[""videos/med_low_c2_white_mirror.mov""]","f","response","false"
"","","","","","html-keyboard-response","503","665732","0.0-7.0-0.34","null","<div style=""font-size:60px;"">+</div>","null","fixation",""
"","","","","","video-keyboard-response","504","666550","0.0-7.0-1.34","817","[""videos/fast_med_c14_white_mirror.mov""]","f","response","false"
"","","","","","html-keyboard-response","505","667552","0.0-7.0-0.35","null","<div style=""font-size:60px;"">+</div>","null","fixation",""
"","","","","","video-keyboard-response","506","668487","0.0-7.0-1.35","934","[""videos/fast_low_c14_white_mirror.mov""]","f","response","false"
"","","","","","html-keyboard-response","507","669238","0.0-7.0-0.36","null","<div style=""font-size:60px;"">+</div>","null","fixation",""
"","","","","","video-keyboard-response","508","670114","0.0-7.0-1.36","874","[""videos/fast_med_c15_white_mirror.mov""]","f","response","false"
"","","","","","html-keyboard-response","509","671116","0.0-7.0-0.37","null","<div style=""font-size:60px;"">+</div>","null","fixation",""
"","","","","","video-keyboard-response","510","672403","0.0-7.0-1.37","1285","[""videos/med_low_c9_white_mirror.mov""]","j","response","false"
"","","","","","html-keyboard-response","511","673405","0.0-7.0-0.38","null","<div style=""font-size:60px;"">+</div>","null","fixation",""
"","","","","","video-keyboard-response","512","674317","0.0-7.0-1.38","911","[""videos/fast_med_c17_white.mov""]","f","response","false"
"","","","","","html-keyboard-response","513","675319","0.0-7.0-0.39","null","<div style=""font-size:60px;"">+</div>","null","fixation",""
"","","","","","video-keyboard-response","514","676092","0.0-7.0-1.39","771","[""videos/fast_high_c17_white_mirror.mov""]","f","response","false"
"","","","","","html-keyboard-response","515","676593","0.0-7.0-0.40","null","<div style=""font-size:60px;"">+</div>","null","fixation",""
"","","","","","video-keyboard-response","516","677558","0.0-7.0-1.40","963","[""videos/fast_med_c11_white.mov""]","f","response","false"
"","","","","","html-keyboard-response","517","678559","0.0-7.0-0.41","null","<div style=""font-size:60px;"">+</div>","null","fixation",""
"","","","","","video-keyboard-response","518","680806","0.0-7.0-1.41","2245","[""videos/slow_low_c2_white.mov""]","f","response","false"
"","","","","","html-keyboard-response","519","681558","0.0-7.0-0.42","null","<div style=""font-size:60px;"">+</div>","null","fixation",""
"","","","","","video-keyboard-response","520","683224","0.0-7.0-1.42","1665","[""videos/med_high_c1_white_mirror.mov""]","f","response","false"
"","","","","","html-keyboard-response","521","683976","0.0-7.0-0.43","null","<div style=""font-size:60px;"">+</div>","null","fixation",""
"","","","","","video-keyboard-response","522","685757","0.0-7.0-1.43","1779","[""videos/med_low_c12_white.mov""]","j","response","false"
"","","","","","html-keyboard-response","523","686760","0.0-7.0-0.44","null","<div style=""font-size:60px;"">+</div>","null","fixation",""
"","","","","","video-keyboard-response","524","688143","0.0-7.0-1.44","1382","[""videos/med_high_c10_white.mov""]","j","response","false"
"","","","","","html-keyboard-response","525","688895","0.0-7.0-0.45","null","<div style=""font-size:60px;"">+</div>","null","fixation",""
"","","","","","video-keyboard-response","526","690181","0.0-7.0-1.45","1284","[""videos/med_low_c5_white.mov""]","f","response","false"
"","","","","","html-keyboard-response","527","690683","0.0-7.0-0.46","null","<div style=""font-size:60px;"">+</div>","null","fixation",""
"","","","","","video-keyboard-response","528","693199","0.0-7.0-1.46","2515","[""videos/fast_low_c16_white_mirror.mov""]","j","response","false"
"","","","","","html-keyboard-response","529","693950","0.0-7.0-0.47","null","<div style=""font-size:60px;"">+</div>","null","fixation",""
"","","","","","video-keyboard-response","530","694956","0.0-7.0-1.47","1004","[""videos/slow_low_c3_white_mirror.mov""]","f","response","false"
"","","","","","html-keyboard-response","531","695709","0.0-7.0-0.48","null","<div style=""font-size:60px;"">+</div>","null","fixation",""
"","","","","","video-keyboard-response","532","696810","0.0-7.0-1.48","1100","[""videos/slow_med_c4_white.mov""]","f","response","false"
"","","","","","html-keyboard-response","533","697811","0.0-7.0-0.49","null","<div style=""font-size:60px;"">+</div>","null","fixation",""
"","","","","","video-keyboard-response","534","698987","0.0-7.0-1.49","1175","[""videos/fast_low_c5_white.mov""]","f","response","false"
"","","","","","html-keyboard-response","535","699489","0.0-7.0-0.50","null","<div style=""font-size:60px;"">+</div>","null","fixation",""
"","","","","","video-keyboard-response","536","700727","0.0-7.0-1.50","1236","[""videos/med_high_c3_white_mirror.mov""]","f","response","false"
"","","","","","html-keyboard-response","537","701687","0.0-7.0-2.50-0.50","960","<p>You can take a quick break now if you need it.</p>
      <p>Press the spacebar to continue.</p>"," ","",""
"","","","","","html-keyboard-response","538","702438","0.0-7.0-0.51","null","<div style=""font-size:60px;"">+</div>","null","fixation",""
"","","","","","video-keyboard-response","539","703571","0.0-7.0-1.51","1131","[""videos/med_med_c6_white_mirror.mov""]","f","response","false"
"","","","","","html-keyboard-response","540","704072","0.0-7.0-0.52","null","<div style=""font-size:60px;"">+</div>","null","fixation",""
"","","","","","video-keyboard-response","541","705244","0.0-7.0-1.52","1171","[""videos/fast_low_c12_white.mov""]","f","response","false"
"","","","","","html-keyboard-response","542","705745","0.0-7.0-0.53","null","<div style=""font-size:60px;"">+</div>","null","fixation",""
"","","","","","video-keyboard-response","543","706836","0.0-7.0-1.53","1090","[""videos/slow_low_c1_white_mirror.mov""]","f","response","false"
"","","","","","html-keyboard-response","544","707839","0.0-7.0-0.54","null","<div style=""font-size:60px;"">+</div>","null","fixation",""
"","","","","","video-keyboard-response","545","709701","0.0-7.0-1.54","1861","[""videos/slow_high_c4_white.mov""]","f","response","false"
"","","","","","html-keyboard-response","546","710703","0.0-7.0-0.55","null","<div style=""font-size:60px;"">+</div>","null","fixation",""
"","","","","","video-keyboard-response","547","711921","0.0-7.0-1.55","1216","[""videos/slow_med_c1_white.mov""]","f","response","false"
"","","","","","html-keyboard-response","548","712423","0.0-7.0-0.56","null","<div style=""font-size:60px;"">+</div>","null","fixation",""
"","","","","","video-keyboard-response","549","713588","0.0-7.0-1.56","1164","[""videos/fast_med_c6_white_mirror.mov""]","f","response","false"
"","","","","","html-keyboard-response","550","714340","0.0-7.0-0.57","null","<div style=""font-size:60px;"">+</div>","null","fixation",""
"","","","","","video-keyboard-response","551","715475","0.0-7.0-1.57","1133","[""videos/slow_med_c3_white.mov""]","f","response","false"
"","","","","","html-keyboard-response","552","716227","0.0-7.0-0.58","null","<div style=""font-size:60px;"">+</div>","null","fixation",""
"","","","","","video-keyboard-response","553","717324","0.0-7.0-1.58","1096","[""videos/fast_high_c4_white.mov""]","f","response","false"
"","","","","","html-keyboard-response","554","718325","0.0-7.0-0.59","null","<div style=""font-size:60px;"">+</div>","null","fixation",""
"","","","","","video-keyboard-response","555","719894","0.0-7.0-1.59","1568","[""videos/med_low_c16_white_mirror.mov""]","j","response","false"
"","","","","","html-keyboard-response","556","720896","0.0-7.0-0.60","null","<div style=""font-size:60px;"">+</div>","null","fixation",""
"","","","","","video-keyboard-response","557","721922","0.0-7.0-1.60","1024","[""videos/fast_med_c13_white.mov""]","f","response","false"
"","","","","","html-keyboard-response","558","722423","0.0-7.0-0.61","null","<div style=""font-size:60px;"">+</div>","null","fixation",""
"","","","","","video-keyboard-response","559","723463","0.0-7.0-1.61","1039","[""videos/slow_low_c4_white.mov""]","f","response","false"
"","","","","","html-keyboard-response","560","724216","0.0-7.0-0.62","null","<div style=""font-size:60px;"">+</div>","null","fixation",""
"","","","","","video-keyboard-response","561","725421","0.0-7.0-1.62","1204","[""videos/med_low_c7_white.mov""]","f","response","false"
"","","","","","html-keyboard-response","562","726172","0.0-7.0-0.63","null","<div style=""font-size:60px;"">+</div>","null","fixation",""
"","","","","","video-keyboard-response","563","727198","0.0-7.0-1.63","1024","[""videos/med_low_c8_white_mirror.mov""]","f","response","false"
"","","","","","html-keyboard-response","564","727699","0.0-7.0-0.64","null","<div style=""font-size:60px;"">+</div>","null","fixation",""
"","","","","","video-keyboard-response","565","728637","0.0-7.0-1.64","936","[""videos/slow_high_c2_white.mov""]","f","response","false"
"","","","","","html-keyboard-response","566","745733","0.0-8.0","17095","<p>Thank you for completing the experiment.</p>","enter","",""
