"success","timeout","failed_images","failed_audio","failed_video","trial_type","trial_index","time_elapsed","internal_node_id","rt","stimulus","response","task","test_trial"
"true","false","[]","[]","[]","preload","0","1147","0.0-0.0","","","","",""
"","","","","","html-keyboard-response","1","145547","0.0-1.0","144396","Welcome to the experiment. Press any key to begin."," ","",""
"","","","","","html-keyboard-response","2","172263","0.0-2.0","26716","
        <p>In this experiment, you will be shown short movies containing two objects. One of the objects will be moving toward the other.</p>
        <p>In these movies, the moving object either collides with the stationary object, or it comes to a stop before reaching the stationary object.
          However, you will be shown a clipped version of the movie that does not reveal the ending.</p> 
        <p>Please watch each clip carefully. Then predict whether or not the two objects will collide later on in the video.</p>
        <p>Press the <b>""F""</b> key for <b>yes</b>, the objects will collide.</p> 
        <p>Press the <b>""J""</b> key for <b>no</b>, the objects will not collide.</p>
        <p>Press any key to start.</p>
      "," ","",""
"","","","","","html-keyboard-response","3","174519","0.0-3.0-0.0","null","<div style=""font-size:60px;"">+</div>","null","fixation",""
"","","","","","video-keyboard-response","4","177130","0.0-3.0-1.0","2609","[""videos/med_med_c11_white_mirror.mov""]","j","response","false"
"","","","","","html-keyboard-response","5","177882","0.0-3.0-0.1","null","<div style=""font-size:60px;"">+</div>","null","fixation",""
"","","","","","video-keyboard-response","6","182708","0.0-3.0-1.1","4824","[""videos/med_high_c13_white.mov""]","f","response","false"
"","","","","","html-keyboard-response","7","183461","0.0-3.0-0.2","null","<div style=""font-size:60px;"">+</div>","null","fixation",""
"","","","","","video-keyboard-response","8","186750","0.0-3.0-1.2","3288","[""videos/slow_low_c7_white.mov""]","j","response","false"
"","","","","","html-keyboard-response","9","187503","0.0-3.0-0.3","null","<div style=""font-size:60px;"">+</div>","null","fixation",""
"","","","","","video-keyboard-response","10","188991","0.0-3.0-1.3","1486","[""videos/slow_med_c5_white.mov""]","f","response","false"
"","","","","","html-keyboard-response","11","189743","0.0-3.0-0.4","null","<div style=""font-size:60px;"">+</div>","null","fixation",""
"","","","","","video-keyboard-response","12","191467","0.0-3.0-1.4","1723","[""videos/slow_high_c2_white_mirror.mov""]","f","response","false"
"","","","","","html-keyboard-response","13","192219","0.0-3.0-0.5","null","<div style=""font-size:60px;"">+</div>","null","fixation",""
"","","","","","video-keyboard-response","14","194513","0.0-3.0-1.5","2293","[""videos/med_high_c6_white.mov""]","f","response","false"
"","","","","","html-keyboard-response","15","195015","0.0-3.0-0.6","null","<div style=""font-size:60px;"">+</div>","null","fixation",""
"","","","","","video-keyboard-response","16","197188","0.0-3.0-1.6","2171","[""videos/med_low_c9_white_mirror.mov""]","f","response","false"
"","","","","","html-keyboard-response","17","197939","0.0-3.0-0.7","null","<div style=""font-size:60px;"">+</div>","null","fixation",""
"","","","","","video-keyboard-response","18","199817","0.0-3.0-1.7","1876","[""videos/fast_low_c17_white.mov""]","f","response","false"
"","","","","","html-keyboard-response","19","200568","0.0-3.0-0.8","null","<div style=""font-size:60px;"">+</div>","null","fixation",""
"","","","","","video-keyboard-response","20","202285","0.0-3.0-1.8","1716","[""videos/med_med_c1_white.mov""]","f","response","false"
"","","","","","html-keyboard-response","21","202787","0.0-3.0-0.9","null","<div style=""font-size:60px;"">+</div>","null","fixation",""
"","","","","","video-keyboard-response","22","204521","0.0-3.0-1.9","1733","[""videos/med_med_c9_white_mirror.mov""]","f","response","false"
"","","","","","html-keyboard-response","23","205273","0.0-3.0-0.10","null","<div style=""font-size:60px;"">+</div>","null","fixation",""
"","","","","","video-keyboard-response","24","206708","0.0-3.0-1.10","1433","[""videos/slow_high_c13_white_mirror.mov""]","j","response","false"
"","","","","","html-keyboard-response","25","207209","0.0-3.0-0.11","null","<div style=""font-size:60px;"">+</div>","null","fixation",""
"","","","","","video-keyboard-response","26","208734","0.0-3.0-1.11","1524","[""videos/slow_low_c3_white.mov""]","f","response","false"
"","","","","","html-keyboard-response","27","209737","0.0-3.0-0.12","null","<div style=""font-size:60px;"">+</div>","null","fixation",""
"","","","","","video-keyboard-response","28","211474","0.0-3.0-1.12","1736","[""videos/med_low_c8_white.mov""]","f","response","false"
"","","","","","html-keyboard-response","29","211975","0.0-3.0-0.13","null","<div style=""font-size:60px;"">+</div>","null","fixation",""
"","","","","","video-keyboard-response","30","213466","0.0-3.0-1.13","1489","[""videos/fast_med_c14_white_mirror.mov""]","f","response","false"
"","","","","","html-keyboard-response","31","214218","0.0-3.0-0.14","null","<div style=""font-size:60px;"">+</div>","null","fixation",""
"","","","","","video-keyboard-response","32","215782","0.0-3.0-1.14","1562","[""videos/med_low_c7_white.mov""]","f","response","false"
"","","","","","html-keyboard-response","33","216783","0.0-3.0-0.15","null","<div style=""font-size:60px;"">+</div>","null","fixation",""
"","","","","","video-keyboard-response","34","218109","0.0-3.0-1.15","1325","[""videos/fast_low_c12_white_mirror.mov""]","f","response","false"
"","","","","","html-keyboard-response","35","218612","0.0-3.0-0.16","null","<div style=""font-size:60px;"">+</div>","null","fixation",""
"","","","","","video-keyboard-response","36","221060","0.0-3.0-1.16","2447","[""videos/fast_high_c13_white.mov""]","j","response","false"
"","","","","","html-keyboard-response","37","221562","0.0-3.0-0.17","null","<div style=""font-size:60px;"">+</div>","null","fixation",""
"","","","","","video-keyboard-response","38","222840","0.0-3.0-1.17","1276","[""videos/slow_low_c1_white.mov""]","f","response","false"
"","","","","","html-keyboard-response","39","223842","0.0-3.0-0.18","null","<div style=""font-size:60px;"">+</div>","null","fixation",""
"","","","","","video-keyboard-response","40","225094","0.0-3.0-1.18","1250","[""videos/med_high_c3_white.mov""]","f","response","false"
"","","","","","html-keyboard-response","41","226096","0.0-3.0-0.19","null","<div style=""font-size:60px;"">+</div>","null","fixation",""
"","","","","","video-keyboard-response","42","227520","0.0-3.0-1.19","1422","[""videos/fast_high_c4_white_mirror.mov""]","f","response","false"
"","","","","","html-keyboard-response","43","231003","0.0-3.0-2.19-0.19","3483","<p>You can take a quick break now if you need it.</p>
      <p>Press the spacebar to continue.</p>"," ","",""
"","","","","","html-keyboard-response","44","231755","0.0-3.0-0.20","null","<div style=""font-size:60px;"">+</div>","null","fixation",""
"","","","","","video-keyboard-response","45","233429","0.0-3.0-1.20","1673","[""videos/med_med_c4_white_mirror.mov""]","f","response","false"
"","","","","","html-keyboard-response","46","233931","0.0-3.0-0.21","null","<div style=""font-size:60px;"">+</div>","null","fixation",""
"","","","","","video-keyboard-response","47","235234","0.0-3.0-1.21","1301","[""videos/med_high_c5_white_mirror.mov""]","f","response","false"
"","","","","","html-keyboard-response","48","235986","0.0-3.0-0.22","null","<div style=""font-size:60px;"">+</div>","null","fixation",""
"","","","","","video-keyboard-response","49","237320","0.0-3.0-1.22","1332","[""videos/fast_med_c13_white.mov""]","f","response","false"
"","","","","","html-keyboard-response","50","238071","0.0-3.0-0.23","null","<div style=""font-size:60px;"">+</div>","null","fixation",""
"","","","","","video-keyboard-response","51","239432","0.0-3.0-1.23","1359","[""videos/fast_med_c11_white_mirror.mov""]","f","response","false"
"","","","","","html-keyboard-response","52","240183","0.0-3.0-0.24","null","<div style=""font-size:60px;"">+</div>","null","fixation",""
"","","","","","video-keyboard-response","53","241881","0.0-3.0-1.24","1697","[""videos/slow_med_c4_white.mov""]","j","response","false"
"","","","","","html-keyboard-response","54","242633","0.0-3.0-0.25","null","<div style=""font-size:60px;"">+</div>","null","fixation",""
"","","","","","video-keyboard-response","55","244219","0.0-3.0-1.25","1584","[""videos/slow_med_c2_white.mov""]","f","response","false"
"","","","","","html-keyboard-response","56","245220","0.0-3.0-0.26","null","<div style=""font-size:60px;"">+</div>","null","fixation",""
"","","","","","video-keyboard-response","57","246658","0.0-3.0-1.26","1436","[""videos/med_low_c16_white.mov""]","j","response","false"
"","","","","","html-keyboard-response","58","247660","0.0-3.0-0.27","null","<div style=""font-size:60px;"">+</div>","null","fixation",""
"","","","","","video-keyboard-response","59","249239","0.0-3.0-1.27","1578","[""videos/med_high_c8_white_mirror.mov""]","f","response","false"
"","","","","","html-keyboard-response","60","249741","0.0-3.0-0.28","null","<div style=""font-size:60px;"">+</div>","null","fixation",""
"","","","","","video-keyboard-response","61","251306","0.0-3.0-1.28","1564","[""videos/med_low_c5_white.mov""]","f","response","false"
"","","","","","html-keyboard-response","62","251808","0.0-3.0-0.29","null","<div style=""font-size:60px;"">+</div>","null","fixation",""
"","","","","","video-keyboard-response","63","253240","0.0-3.0-1.29","1431","[""videos/med_high_c1_white_mirror.mov""]","f","response","false"
"","","","","","html-keyboard-response","64","253993","0.0-3.0-0.30","null","<div style=""font-size:60px;"">+</div>","null","fixation",""
"","","","","","video-keyboard-response","65","255809","0.0-3.0-1.30","1815","[""videos/fast_low_c15_white_mirror.mov""]","f","response","false"
"","","","","","html-keyboard-response","66","256812","0.0-3.0-0.31","null","<div style=""font-size:60px;"">+</div>","null","fixation",""
"","","","","","video-keyboard-response","67","258223","0.0-3.0-1.31","1410","[""videos/slow_high_c6_white.mov""]","j","response","false"
"","","","","","html-keyboard-response","68","259224","0.0-3.0-0.32","null","<div style=""font-size:60px;"">+</div>","null","fixation",""
"","","","","","video-keyboard-response","69","260589","0.0-3.0-1.32","1364","[""videos/fast_med_c6_white.mov""]","f","response","false"
"","","","","","html-keyboard-response","70","261592","0.0-3.0-0.33","null","<div style=""font-size:60px;"">+</div>","null","fixation",""
"","","","","","video-keyboard-response","71","263929","0.0-3.0-1.33","2336","[""videos/med_low_c10_white_mirror.mov""]","j","response","false"
"","","","","","html-keyboard-response","72","264682","0.0-3.0-0.34","null","<div style=""font-size:60px;"">+</div>","null","fixation",""
"","","","","","video-keyboard-response","73","266087","0.0-3.0-1.34","1404","[""videos/fast_high_c8_white.mov""]","f","response","false"
"","","","","","html-keyboard-response","74","266588","0.0-3.0-0.35","null","<div style=""font-size:60px;"">+</div>","null","fixation",""
"","","","","","video-keyboard-response","75","270511","0.0-3.0-1.35","3921","[""videos/fast_low_c14_white.mov""]","f","response","false"
"","","","","","html-keyboard-response","76","271513","0.0-3.0-0.36","null","<div style=""font-size:60px;"">+</div>","null","fixation",""
"","","","","","video-keyboard-response","77","273017","0.0-3.0-1.36","1503","[""videos/fast_high_c11_white_mirror.mov""]","f","response","false"
"","","","","","html-keyboard-response","78","273768","0.0-3.0-0.37","null","<div style=""font-size:60px;"">+</div>","null","fixation",""
"","","","","","video-keyboard-response","79","275429","0.0-3.0-1.37","1659","[""videos/fast_high_c17_white_mirror.mov""]","j","response","false"
"","","","","","html-keyboard-response","80","276181","0.0-3.0-0.38","null","<div style=""font-size:60px;"">+</div>","null","fixation",""
"","","","","","video-keyboard-response","81","277537","0.0-3.0-1.38","1354","[""videos/slow_low_c12_white_mirror.mov""]","j","response","false"
"","","","","","html-keyboard-response","82","278288","0.0-3.0-0.39","null","<div style=""font-size:60px;"">+</div>","null","fixation",""
"","","","","","video-keyboard-response","83","281186","0.0-3.0-1.39","2897","[""videos/fast_low_c16_white.mov""]","j","response","false"
"","","","","","html-keyboard-response","84","285638","0.0-3.0-2.39-0.39","4452","<p>You can take a quick break now if you need it.</p>
      <p>Press the spacebar to continue.</p>"," ","",""
"","","","","","html-keyboard-response","85","286140","0.0-3.0-0.40","null","<div style=""font-size:60px;"">+</div>","null","fixation",""
"","","","","","video-keyboard-response","86","291017","0.0-3.0-1.40","4876","[""videos/fast_high_c15_white.mov""]","j","response","false"
"","","","","","html-keyboard-response","87","291518","0.0-3.0-0.41","null","<div style=""font-size:60px;"">+</div>","null","fixation",""
"","","","","","video-keyboard-response","88","293216","0.0-3.0-1.41","1697","[""videos/med_med_c14_white.mov""]","j","response","false"
"","","","","","html-keyboard-response","89","293717","0.0-3.0-0.42","null","<div style=""font-size:60px;"">+</div>","null","fixation",""
"","","","","","video-keyboard-response","90","295081","0.0-3.0-1.42","1363","[""videos/med_low_c2_white_mirror.mov""]","f","response","false"
"","","","","","html-keyboard-response","91","296083","0.0-3.0-0.43","null","<div style=""font-size:60px;"">+</div>","null","fixation",""
"","","","","","video-keyboard-response","92","297956","0.0-3.0-1.43","1871","[""videos/med_high_c10_white.mov""]","j","response","false"
"","","","","","html-keyboard-response","93","298709","0.0-3.0-0.44","null","<div style=""font-size:60px;"">+</div>","null","fixation",""
"","","","","","video-keyboard-response","94","300328","0.0-3.0-1.44","1618","[""videos/med_med_c6_white.mov""]","f","response","false"
"","","","","","html-keyboard-response","95","301330","0.0-3.0-0.45","null","<div style=""font-size:60px;"">+</div>","null","fixation",""
"","","","","","video-keyboard-response","96","304361","0.0-3.0-1.45","3029","[""videos/fast_high_c10_white_mirror.mov""]","f","response","false"
"","","","","","html-keyboard-response","97","305113","0.0-3.0-0.46","null","<div style=""font-size:60px;"">+</div>","null","fixation",""
"","","","","","video-keyboard-response","98","306399","0.0-3.0-1.46","1285","[""videos/slow_med_c10_white_mirror.mov""]","j","response","false"
"","","","","","html-keyboard-response","99","307151","0.0-3.0-0.47","null","<div style=""font-size:60px;"">+</div>","null","fixation",""
"","","","","","video-keyboard-response","100","309102","0.0-3.0-1.47","1949","[""videos/med_high_c7_white_mirror.mov""]","f","response","false"
"","","","","","html-keyboard-response","101","309604","0.0-3.0-0.48","null","<div style=""font-size:60px;"">+</div>","null","fixation",""
"","","","","","video-keyboard-response","102","311005","0.0-3.0-1.48","1400","[""videos/slow_med_c3_white_mirror.mov""]","j","response","false"
"","","","","","html-keyboard-response","103","311505","0.0-3.0-0.49","null","<div style=""font-size:60px;"">+</div>","null","fixation",""
"","","","","","video-keyboard-response","104","313161","0.0-3.0-1.49","1654","[""videos/fast_low_c5_white_mirror.mov""]","f","response","false"
"","","","","","html-keyboard-response","105","314163","0.0-3.0-0.50","null","<div style=""font-size:60px;"">+</div>","null","fixation",""
"","","","","","video-keyboard-response","106","315854","0.0-3.0-1.50","1690","[""videos/slow_high_c4_white.mov""]","j","response","false"
"","","","","","html-keyboard-response","107","316607","0.0-3.0-0.51","null","<div style=""font-size:60px;"">+</div>","null","fixation",""
"","","","","","video-keyboard-response","108","318150","0.0-3.0-1.51","1542","[""videos/med_med_c7_white_mirror.mov""]","f","response","false"
"","","","","","html-keyboard-response","109","318652","0.0-3.0-0.52","null","<div style=""font-size:60px;"">+</div>","null","fixation",""
"","","","","","video-keyboard-response","110","324636","0.0-3.0-1.52","5982","[""videos/med_med_c8_white.mov""]","j","response","false"
"","","","","","html-keyboard-response","111","325137","0.0-3.0-0.53","null","<div style=""font-size:60px;"">+</div>","null","fixation",""
"","","","","","video-keyboard-response","112","326591","0.0-3.0-1.53","1452","[""videos/med_low_c12_white_mirror.mov""]","j","response","false"
"","","","","","html-keyboard-response","113","327093","0.0-3.0-0.54","null","<div style=""font-size:60px;"">+</div>","null","fixation",""
"","","","","","video-keyboard-response","114","328730","0.0-3.0-1.54","1636","[""videos/fast_med_c17_white.mov""]","f","response","false"
"","","","","","html-keyboard-response","115","329482","0.0-3.0-0.55","null","<div style=""font-size:60px;"">+</div>","null","fixation",""
"","","","","","video-keyboard-response","116","331071","0.0-3.0-1.55","1588","[""videos/slow_high_c1_white_mirror.mov""]","f","response","false"
"","","","","","html-keyboard-response","117","331573","0.0-3.0-0.56","null","<div style=""font-size:60px;"">+</div>","null","fixation",""
"","","","","","video-keyboard-response","118","333123","0.0-3.0-1.56","1548","[""videos/slow_low_c5_white_mirror.mov""]","f","response","false"
"","","","","","html-keyboard-response","119","333875","0.0-3.0-0.57","null","<div style=""font-size:60px;"">+</div>","null","fixation",""
"","","","","","video-keyboard-response","120","336842","0.0-3.0-1.57","2966","[""videos/slow_high_c3_white.mov""]","j","response","false"
"","","","","","html-keyboard-response","121","337343","0.0-3.0-0.58","null","<div style=""font-size:60px;"">+</div>","null","fixation",""
"","","","","","video-keyboard-response","122","338664","0.0-3.0-1.58","1320","[""videos/slow_med_c1_white_mirror.mov""]","f","response","false"
"","","","","","html-keyboard-response","123","339667","0.0-3.0-0.59","null","<div style=""font-size:60px;"">+</div>","null","fixation",""
"","","","","","video-keyboard-response","124","342075","0.0-3.0-1.59","2407","[""videos/slow_low_c2_white_mirror.mov""]","f","response","false"
"","","","","","html-keyboard-response","125","349495","0.0-3.0-2.59-0.59","7420","<p>You can take a quick break now if you need it.</p>
      <p>Press the spacebar to continue.</p>"," ","",""
"","","","","","html-keyboard-response","126","350248","0.0-3.0-0.60","null","<div style=""font-size:60px;"">+</div>","null","fixation",""
"","","","","","video-keyboard-response","127","351878","0.0-3.0-1.60","1629","[""videos/slow_med_c7_white.mov""]","j","response","false"
"","","","","","html-keyboard-response","128","352629","0.0-3.0-0.61","null","<div style=""font-size:60px;"">+</div>","null","fixation",""
"","","","","","video-keyboard-response","129","354097","0.0-3.0-1.61","1467","[""videos/fast_med_c16_white_mirror.mov""]","f","response","false"
"","","","","","html-keyboard-response","130","354599","0.0-3.0-0.62","null","<div style=""font-size:60px;"">+</div>","null","fixation",""
"","","","","","video-keyboard-response","131","356859","0.0-3.0-1.62","2259","[""videos/slow_low_c4_white.mov""]","j","response","false"
"","","","","","html-keyboard-response","132","357860","0.0-3.0-0.63","null","<div style=""font-size:60px;"">+</div>","null","fixation",""
"","","","","","video-keyboard-response","133","360784","0.0-3.0-1.63","2923","[""videos/fast_high_c12_white.mov""]","f","response","false"
"","","","","","html-keyboard-response","134","361786","0.0-3.0-0.64","null","<div style=""font-size:60px;"">+</div>","null","fixation",""
"","","","","","video-keyboard-response","135","363293","0.0-3.0-1.64","1505","[""videos/fast_med_c15_white.mov""]","f","response","false"
"","","","","","html-keyboard-response","136","365015","0.0-4.0","1722","<p>You can take a quick break now if you need it.</p>
      <p>Press the spacebar to continue.</p>"," ","",""
"","","","","","html-keyboard-response","137","365517","0.0-5.0-0.0","null","<div style=""font-size:60px;"">+</div>","null","fixation",""
"","","","","","video-keyboard-response","138","367687","0.0-5.0-1.0","2169","[""videos/med_med_c7_pink_mirror.mov""]","j","response","false"
"","","","","","html-keyboard-response","139","368689","0.0-5.0-0.1","null","<div style=""font-size:60px;"">+</div>","null","fixation",""
"","","","","","video-keyboard-response","140","370138","0.0-5.0-1.1","1448","[""videos/slow_high_c6_pink_mirror.mov""]","j","response","false"
"","","","","","html-keyboard-response","141","370890","0.0-5.0-0.2","null","<div style=""font-size:60px;"">+</div>","null","fixation",""
"","","","","","video-keyboard-response","142","374132","0.0-5.0-1.2","3241","[""videos/med_high_c7_purple.mov""]","f","response","false"
"","","","","","html-keyboard-response","143","374634","0.0-5.0-0.3","null","<div style=""font-size:60px;"">+</div>","null","fixation",""
"","","","","","video-keyboard-response","144","376436","0.0-5.0-1.3","1800","[""videos/fast_high_c13_pink_mirror.mov""]","j","response","false"
"","","","","","html-keyboard-response","145","377188","0.0-5.0-0.4","null","<div style=""font-size:60px;"">+</div>","null","fixation",""
"","","","","","video-keyboard-response","146","380083","0.0-5.0-1.4","2894","[""videos/med_low_c10_tan.mov""]","j","response","false"
"","","","","","html-keyboard-response","147","380835","0.0-5.0-0.5","null","<div style=""font-size:60px;"">+</div>","null","fixation",""
"","","","","","video-keyboard-response","148","386873","0.0-5.0-1.5","6036","[""videos/med_med_c7_teal.mov""]","j","response","false"
"","","","","","html-keyboard-response","149","387875","0.0-5.0-0.6","null","<div style=""font-size:60px;"">+</div>","null","fixation",""
"","","","","","video-keyboard-response","150","391527","0.0-5.0-1.6","3651","[""videos/fast_low_c16_pink.mov""]","j","response","false"
"","","","","","html-keyboard-response","151","392029","0.0-5.0-0.7","null","<div style=""font-size:60px;"">+</div>","null","fixation",""
"","","","","","video-keyboard-response","152","395134","0.0-5.0-1.7","3103","[""videos/fast_low_c14_teal_mirror.mov""]","j","response","false"
"","","","","","html-keyboard-response","153","395634","0.0-5.0-0.8","null","<div style=""font-size:60px;"">+</div>","null","fixation",""
"","","","","","video-keyboard-response","154","397005","0.0-5.0-1.8","1369","[""videos/med_low_c2_pink_mirror.mov""]","f","response","false"
"","","","","","html-keyboard-response","155","398006","0.0-5.0-0.9","null","<div style=""font-size:60px;"">+</div>","null","fixation",""
"","","","","","video-keyboard-response","156","399704","0.0-5.0-1.9","1696","[""videos/med_high_c1_tan.mov""]","f","response","false"
"","","","","","html-keyboard-response","157","400456","0.0-5.0-0.10","null","<div style=""font-size:60px;"">+</div>","null","fixation",""
"","","","","","video-keyboard-response","158","403890","0.0-5.0-1.10","3431","[""videos/fast_high_c15_tan_mirror.mov""]","j","response","false"
"","","","","","html-keyboard-response","159","404642","0.0-5.0-0.11","null","<div style=""font-size:60px;"">+</div>","null","fixation",""
"","","","","","video-keyboard-response","160","406141","0.0-5.0-1.11","1497","[""videos/fast_high_c4_tan.mov""]","f","response","false"
"","","","","","html-keyboard-response","161","406642","0.0-5.0-0.12","null","<div style=""font-size:60px;"">+</div>","null","fixation",""
"","","","","","video-keyboard-response","162","409580","0.0-5.0-1.12","2936","[""videos/fast_med_c16_teal_mirror.mov""]","f","response","false"
"","","","","","html-keyboard-response","163","410081","0.0-5.0-0.13","null","<div style=""font-size:60px;"">+</div>","null","fixation",""
"","","","","","video-keyboard-response","164","411550","0.0-5.0-1.13","1467","[""videos/fast_low_c17_teal_mirror.mov""]","j","response","false"
"","","","","","html-keyboard-response","165","412302","0.0-5.0-0.14","null","<div style=""font-size:60px;"">+</div>","null","fixation",""
"","","","","","video-keyboard-response","166","413911","0.0-5.0-1.14","1608","[""videos/slow_med_c3_tan_mirror.mov""]","f","response","false"
"","","","","","html-keyboard-response","167","415796","0.0-5.0-2.14-0.14","1885","<p>You can take a quick break now if you need it.</p>
      <p>Press the spacebar to continue.</p>"," ","",""
"","","","","","html-keyboard-response","168","416798","0.0-5.0-0.15","null","<div style=""font-size:60px;"">+</div>","null","fixation",""
"","","","","","video-keyboard-response","169","432385","0.0-5.0-1.15","15586","[""videos/med_low_c12_pink.mov""]","j","response","false"
"","","","","","html-keyboard-response","170","432887","0.0-5.0-0.16","null","<div style=""font-size:60px;"">+</div>","null","fixation",""
"","","","","","video-keyboard-response","171","435056","0.0-5.0-1.16","2167","[""videos/fast_low_c12_tan_mirror.mov""]","f","response","false"
"","","","","","html-keyboard-response","172","435808","0.0-5.0-0.17","null","<div style=""font-size:60px;"">+</div>","null","fixation",""
"","","","","","video-keyboard-response","173","437495","0.0-5.0-1.17","1685","[""videos/slow_low_c1_teal_mirror.mov""]","f","response","false"
"","","","","","html-keyboard-response","174","437997","0.0-5.0-0.18","null","<div style=""font-size:60px;"">+</div>","null","fixation",""
"","","","","","video-keyboard-response","175","439827","0.0-5.0-1.18","1829","[""videos/fast_high_c8_pink_mirror.mov""]","f","response","false"
"","","","","","html-keyboard-response","176","440329","0.0-5.0-0.19","null","<div style=""font-size:60px;"">+</div>","null","fixation",""
"","","","","","video-keyboard-response","177","441909","0.0-5.0-1.19","1578","[""videos/fast_med_c15_purple_mirror.mov""]","f","response","false"
"","","","","","html-keyboard-response","178","442911","0.0-5.0-0.20","null","<div style=""font-size:60px;"">+</div>","null","fixation",""
"","","","","","video-keyboard-response","179","444427","0.0-5.0-1.20","1515","[""videos/slow_high_c2_tan.mov""]","f","response","false"
"","","","","","html-keyboard-response","180","445428","0.0-5.0-0.21","null","<div style=""font-size:60px;"">+</div>","null","fixation",""
"","","","","","video-keyboard-response","181","446958","0.0-5.0-1.21","1528","[""videos/slow_high_c1_purple.mov""]","f","response","false"
"","","","","","html-keyboard-response","182","447960","0.0-5.0-0.22","null","<div style=""font-size:60px;"">+</div>","null","fixation",""
"","","","","","video-keyboard-response","183","450452","0.0-5.0-1.22","2491","[""videos/slow_med_c10_pink_mirror.mov""]","j","response","false"
"","","","","","html-keyboard-response","184","450954","0.0-5.0-0.23","null","<div style=""font-size:60px;"">+</div>","null","fixation",""
"","","","","","video-keyboard-response","185","458563","0.0-5.0-1.23","7608","[""videos/slow_low_c4_purple.mov""]","f","response","false"
"","","","","","html-keyboard-response","186","459565","0.0-5.0-0.24","null","<div style=""font-size:60px;"">+</div>","null","fixation",""
"","","","","","video-keyboard-response","187","461230","0.0-5.0-1.24","1663","[""videos/med_high_c6_pink_mirror.mov""]","f","response","false"
"","","","","","html-keyboard-response","188","462232","0.0-5.0-0.25","null","<div style=""font-size:60px;"">+</div>","null","fixation",""
"","","","","","video-keyboard-response","189","464357","0.0-5.0-1.25","2124","[""videos/med_low_c12_purple_mirror.mov""]","j","response","false"
"","","","","","html-keyboard-response","190","465108","0.0-5.0-0.26","null","<div style=""font-size:60px;"">+</div>","null","fixation",""
"","","","","","video-keyboard-response","191","466427","0.0-5.0-1.26","1318","[""videos/fast_low_c5_tan_mirror.mov""]","f","response","false"
"","","","","","html-keyboard-response","192","467179","0.0-5.0-0.27","null","<div style=""font-size:60px;"">+</div>","null","fixation",""
"","","","","","video-keyboard-response","193","479211","0.0-5.0-1.27","12031","[""videos/fast_high_c10_purple_mirror.mov""]","j","response","false"
"","","","","","html-keyboard-response","194","479963","0.0-5.0-0.28","null","<div style=""font-size:60px;"">+</div>","null","fixation",""
"","","","","","video-keyboard-response","195","487733","0.0-5.0-1.28","7768","[""videos/med_high_c7_pink_mirror.mov""]","f","response","false"
"","","","","","html-keyboard-response","196","488485","0.0-5.0-0.29","null","<div style=""font-size:60px;"">+</div>","null","fixation",""
"","","","","","video-keyboard-response","197","490219","0.0-5.0-1.29","1732","[""videos/slow_med_c5_purple.mov""]","j","response","false"
"","","","","","html-keyboard-response","198","490720","0.0-5.0-0.30","null","<div style=""font-size:60px;"">+</div>","null","fixation",""
"","","","","","video-keyboard-response","199","497277","0.0-5.0-1.30","6554","[""videos/slow_high_c4_teal_mirror.mov""]","j","response","false"
"","","","","","html-keyboard-response","200","498279","0.0-5.0-0.31","null","<div style=""font-size:60px;"">+</div>","null","fixation",""
"","","","","","video-keyboard-response","201","499847","0.0-5.0-1.31","1567","[""videos/slow_med_c3_teal.mov""]","f","response","false"
"","","","","","html-keyboard-response","202","500849","0.0-5.0-0.32","null","<div style=""font-size:60px;"">+</div>","null","fixation",""
"","","","","","video-keyboard-response","203","503010","0.0-5.0-1.32","2160","[""videos/slow_low_c5_teal.mov""]","j","response","false"
"","","","","","html-keyboard-response","204","503512","0.0-5.0-0.33","null","<div style=""font-size:60px;"">+</div>","null","fixation",""
"","","","","","video-keyboard-response","205","505571","0.0-5.0-1.33","2057","[""videos/fast_low_c14_pink.mov""]","f","response","false"
"","","","","","html-keyboard-response","206","506322","0.0-5.0-0.34","null","<div style=""font-size:60px;"">+</div>","null","fixation",""
"","","","","","video-keyboard-response","207","511028","0.0-5.0-1.34","4704","[""videos/fast_med_c14_pink_mirror.mov""]","f","response","false"
"","","","","","html-keyboard-response","208","531730","0.0-5.0-2.34-0.34","20701","<p>You can take a quick break now if you need it.</p>
      <p>Press the spacebar to continue.</p>"," ","",""
"","","","","","html-keyboard-response","209","532232","0.0-5.0-0.35","null","<div style=""font-size:60px;"">+</div>","null","fixation",""
"","","","","","video-keyboard-response","210","533501","0.0-5.0-1.35","1268","[""videos/med_high_c3_tan.mov""]","f","response","false"
"","","","","","html-keyboard-response","211","534502","0.0-5.0-0.36","null","<div style=""font-size:60px;"">+</div>","null","fixation",""
"","","","","","video-keyboard-response","212","540519","0.0-5.0-1.36","6015","[""videos/fast_high_c12_purple.mov""]","f","response","false"
"","","","","","html-keyboard-response","213","541271","0.0-5.0-0.37","null","<div style=""font-size:60px;"">+</div>","null","fixation",""
"","","","","","video-keyboard-response","214","544346","0.0-5.0-1.37","3073","[""videos/med_med_c4_tan.mov""]","f","response","false"
"","","","","","html-keyboard-response","215","545098","0.0-5.0-0.38","null","<div style=""font-size:60px;"">+</div>","null","fixation",""
"","","","","","video-keyboard-response","216","562450","0.0-5.0-1.38","17351","[""videos/fast_med_c16_purple.mov""]","f","response","false"
"","","","","","html-keyboard-response","217","562952","0.0-5.0-0.39","null","<div style=""font-size:60px;"">+</div>","null","fixation",""
"","","","","","video-keyboard-response","218","564651","0.0-5.0-1.39","1698","[""videos/slow_med_c2_tan_mirror.mov""]","f","response","false"
"","","","","","html-keyboard-response","219","565152","0.0-5.0-0.40","null","<div style=""font-size:60px;"">+</div>","null","fixation",""
"","","","","","video-keyboard-response","220","572777","0.0-5.0-1.40","7623","[""videos/fast_med_c11_teal_mirror.mov""]","f","response","false"
"","","","","","html-keyboard-response","221","573529","0.0-5.0-0.41","null","<div style=""font-size:60px;"">+</div>","null","fixation",""
"","","","","","video-keyboard-response","222","574860","0.0-5.0-1.41","1330","[""videos/med_high_c1_pink_mirror.mov""]","f","response","false"
"","","","","","html-keyboard-response","223","575362","0.0-5.0-0.42","null","<div style=""font-size:60px;"">+</div>","null","fixation",""
"","","","","","video-keyboard-response","224","576712","0.0-5.0-1.42","1349","[""videos/med_med_c1_pink.mov""]","f","response","false"
"","","","","","html-keyboard-response","225","577213","0.0-5.0-0.43","null","<div style=""font-size:60px;"">+</div>","null","fixation",""
"","","","","","video-keyboard-response","226","578523","0.0-5.0-1.43","1309","[""videos/slow_med_c2_teal.mov""]","f","response","false"
"","","","","","html-keyboard-response","227","579276","0.0-5.0-0.44","null","<div style=""font-size:60px;"">+</div>","null","fixation",""
"","","","","","video-keyboard-response","228","581454","0.0-5.0-1.44","2177","[""videos/med_low_c16_pink.mov""]","j","response","false"
"","","","","","html-keyboard-response","229","582205","0.0-5.0-0.45","null","<div style=""font-size:60px;"">+</div>","null","fixation",""
"","","","","","video-keyboard-response","230","583751","0.0-5.0-1.45","1544","[""videos/med_high_c8_purple.mov""]","j","response","false"
"","","","","","html-keyboard-response","231","584252","0.0-5.0-0.46","null","<div style=""font-size:60px;"">+</div>","null","fixation",""
"","","","","","video-keyboard-response","232","585686","0.0-5.0-1.46","1433","[""videos/med_low_c16_purple_mirror.mov""]","j","response","false"
"","","","","","html-keyboard-response","233","586187","0.0-5.0-0.47","null","<div style=""font-size:60px;"">+</div>","null","fixation",""
"","","","","","video-keyboard-response","234","587499","0.0-5.0-1.47","1310","[""videos/slow_low_c3_purple_mirror.mov""]","f","response","false"
"","","","","","html-keyboard-response","235","588251","0.0-5.0-0.48","null","<div style=""font-size:60px;"">+</div>","null","fixation",""
"","","","","","video-keyboard-response","236","589763","0.0-5.0-1.48","1510","[""videos/slow_med_c7_teal.mov""]","j","response","false"
"","","","","","html-keyboard-response","237","590516","0.0-5.0-0.49","null","<div style=""font-size:60px;"">+</div>","null","fixation",""
"","","","","","video-keyboard-response","238","592077","0.0-5.0-1.49","1560","[""videos/slow_med_c5_tan_mirror.mov""]","j","response","false"
"","","","","","html-keyboard-response","239","593080","0.0-5.0-0.50","null","<div style=""font-size:60px;"">+</div>","null","fixation",""
"","","","","","video-keyboard-response","240","595762","0.0-5.0-1.50","2681","[""videos/fast_low_c17_purple.mov""]","f","response","false"
"","","","","","html-keyboard-response","241","596514","0.0-5.0-0.51","null","<div style=""font-size:60px;"">+</div>","null","fixation",""
"","","","","","video-keyboard-response","242","597856","0.0-5.0-1.51","1341","[""videos/fast_med_c6_pink_mirror.mov""]","f","response","false"
"","","","","","html-keyboard-response","243","598358","0.0-5.0-0.52","null","<div style=""font-size:60px;"">+</div>","null","fixation",""
"","","","","","video-keyboard-response","244","601777","0.0-5.0-1.52","3418","[""videos/slow_high_c1_tan.mov""]","f","response","false"
"","","","","","html-keyboard-response","245","602529","0.0-5.0-0.53","null","<div style=""font-size:60px;"">+</div>","null","fixation",""
"","","","","","video-keyboard-response","246","607927","0.0-5.0-1.53","5396","[""videos/fast_med_c13_tan.mov""]","f","response","false"
"","","","","","html-keyboard-response","247","608928","0.0-5.0-0.54","null","<div style=""font-size:60px;"">+</div>","null","fixation",""
"","","","","","video-keyboard-response","248","610395","0.0-5.0-1.54","1465","[""videos/med_med_c8_pink.mov""]","j","response","false"
"","","","","","html-keyboard-response","249","616502","0.0-5.0-2.54-0.54","6106","<p>You can take a quick break now if you need it.</p>
      <p>Press the spacebar to continue.</p>"," ","",""
"","","","","","html-keyboard-response","250","617504","0.0-5.0-0.55","null","<div style=""font-size:60px;"">+</div>","null","fixation",""
"","","","","","video-keyboard-response","251","619119","0.0-5.0-1.55","1614","[""videos/fast_high_c12_teal_mirror.mov""]","j","response","false"
"","","","","","html-keyboard-response","252","620122","0.0-5.0-0.56","null","<div style=""font-size:60px;"">+</div>","null","fixation",""
"","","","","","video-keyboard-response","253","621512","0.0-5.0-1.56","1389","[""videos/fast_low_c15_teal_mirror.mov""]","j","response","false"
"","","","","","html-keyboard-response","254","622514","0.0-5.0-0.57","null","<div style=""font-size:60px;"">+</div>","null","fixation",""
"","","","","","video-keyboard-response","255","625501","0.0-5.0-1.57","2986","[""videos/med_low_c7_pink.mov""]","j","response","false"
"","","","","","html-keyboard-response","256","626503","0.0-5.0-0.58","null","<div style=""font-size:60px;"">+</div>","null","fixation",""
"","","","","","video-keyboard-response","257","629251","0.0-5.0-1.58","2746","[""videos/fast_low_c16_teal_mirror.mov""]","j","response","false"
"","","","","","html-keyboard-response","258","629753","0.0-5.0-0.59","null","<div style=""font-size:60px;"">+</div>","null","fixation",""
"","","","","","video-keyboard-response","259","631116","0.0-5.0-1.59","1362","[""videos/fast_high_c17_tan_mirror.mov""]","j","response","false"
"","","","","","html-keyboard-response","260","632118","0.0-5.0-0.60","null","<div style=""font-size:60px;"">+</div>","null","fixation",""
"","","","","","video-keyboard-response","261","633734","0.0-5.0-1.60","1616","[""videos/med_med_c11_teal.mov""]","j","response","false"
"","","","","","html-keyboard-response","262","634487","0.0-5.0-0.61","null","<div style=""font-size:60px;"">+</div>","null","fixation",""
"","","","","","video-keyboard-response","263","636088","0.0-5.0-1.61","1600","[""videos/med_med_c6_purple_mirror.mov""]","f","response","false"
"","","","","","html-keyboard-response","264","636841","0.0-5.0-0.62","null","<div style=""font-size:60px;"">+</div>","null","fixation",""
"","","","","","video-keyboard-response","265","638344","0.0-5.0-1.62","1502","[""videos/slow_low_c7_teal_mirror.mov""]","j","response","false"
"","","","","","html-keyboard-response","266","639346","0.0-5.0-0.63","null","<div style=""font-size:60px;"">+</div>","null","fixation",""
"","","","","","video-keyboard-response","267","640703","0.0-5.0-1.63","1355","[""videos/fast_low_c5_teal.mov""]","f","response","false"
"","","","","","html-keyboard-response","268","641454","0.0-5.0-0.64","null","<div style=""font-size:60px;"">+</div>","null","fixation",""
"","","","","","video-keyboard-response","269","643205","0.0-5.0-1.64","1750","[""videos/slow_high_c1_teal_mirror.mov""]","f","response","false"
"","","","","","html-keyboard-response","270","643708","0.0-5.0-0.65","null","<div style=""font-size:60px;"">+</div>","null","fixation",""
"","","","","","video-keyboard-response","271","645832","0.0-5.0-1.65","2123","[""videos/med_low_c5_teal_mirror.mov""]","f","response","false"
"","","","","","html-keyboard-response","272","646334","0.0-5.0-0.66","null","<div style=""font-size:60px;"">+</div>","null","fixation",""
"","","","","","video-keyboard-response","273","647631","0.0-5.0-1.66","1295","[""videos/slow_med_c1_pink.mov""]","f","response","false"
"","","","","","html-keyboard-response","274","648133","0.0-5.0-0.67","null","<div style=""font-size:60px;"">+</div>","null","fixation",""
"","","","","","video-keyboard-response","275","649446","0.0-5.0-1.67","1312","[""videos/slow_low_c2_pink.mov""]","f","response","false"
"","","","","","html-keyboard-response","276","650448","0.0-5.0-0.68","null","<div style=""font-size:60px;"">+</div>","null","fixation",""
"","","","","","video-keyboard-response","277","651762","0.0-5.0-1.68","1313","[""videos/med_med_c1_teal_mirror.mov""]","f","response","false"
"","","","","","html-keyboard-response","278","652514","0.0-5.0-0.69","null","<div style=""font-size:60px;"">+</div>","null","fixation",""
"","","","","","video-keyboard-response","279","655132","0.0-5.0-1.69","2616","[""videos/fast_low_c12_purple.mov""]","f","response","false"
"","","","","","html-keyboard-response","280","655884","0.0-5.0-0.70","null","<div style=""font-size:60px;"">+</div>","null","fixation",""
"","","","","","video-keyboard-response","281","657200","0.0-5.0-1.70","1315","[""videos/slow_low_c5_purple_mirror.mov""]","j","response","false"
"","","","","","html-keyboard-response","282","657702","0.0-5.0-0.71","null","<div style=""font-size:60px;"">+</div>","null","fixation",""
"","","","","","video-keyboard-response","283","659181","0.0-5.0-1.71","1478","[""videos/fast_high_c17_purple.mov""]","j","response","false"
"","","","","","html-keyboard-response","284","660182","0.0-5.0-0.72","null","<div style=""font-size:60px;"">+</div>","null","fixation",""
"","","","","","video-keyboard-response","285","661653","0.0-5.0-1.72","1470","[""videos/fast_med_c6_tan.mov""]","f","response","false"
"","","","","","html-keyboard-response","286","662656","0.0-5.0-0.73","null","<div style=""font-size:60px;"">+</div>","null","fixation",""
"","","","","","video-keyboard-response","287","667370","0.0-5.0-1.73","4713","[""videos/med_low_c8_pink_mirror.mov""]","j","response","false"
"","","","","","html-keyboard-response","288","668122","0.0-5.0-0.74","null","<div style=""font-size:60px;"">+</div>","null","fixation",""
"","","","","","video-keyboard-response","289","669764","0.0-5.0-1.74","1641","[""videos/fast_high_c11_purple_mirror.mov""]","f","response","false"
"","","","","","html-keyboard-response","290","671922","0.0-5.0-2.74-0.74","2158","<p>You can take a quick break now if you need it.</p>
      <p>Press the spacebar to continue.</p>"," ","",""
"","","","","","html-keyboard-response","291","672924","0.0-5.0-0.75","null","<div style=""font-size:60px;"">+</div>","null","fixation",""
"","","","","","video-keyboard-response","292","674814","0.0-5.0-1.75","1888","[""videos/med_high_c5_teal.mov""]","f","response","false"
"","","","","","html-keyboard-response","293","675816","0.0-5.0-0.76","null","<div style=""font-size:60px;"">+</div>","null","fixation",""
"","","","","","video-keyboard-response","294","676857","0.0-5.0-1.76","1039","[""videos/slow_high_c13_purple_mirror.mov""]","j","response","false"
"","","","","","html-keyboard-response","295","677858","0.0-5.0-0.77","null","<div style=""font-size:60px;"">+</div>","null","fixation",""
"","","","","","video-keyboard-response","296","680692","0.0-5.0-1.77","2832","[""videos/fast_med_c16_tan_mirror.mov""]","f","response","false"
"","","","","","html-keyboard-response","297","681194","0.0-5.0-0.78","null","<div style=""font-size:60px;"">+</div>","null","fixation",""
"","","","","","video-keyboard-response","298","682630","0.0-5.0-1.78","1435","[""videos/slow_low_c12_tan.mov""]","j","response","false"
"","","","","","html-keyboard-response","299","683132","0.0-5.0-0.79","null","<div style=""font-size:60px;"">+</div>","null","fixation",""
"","","","","","video-keyboard-response","300","690398","0.0-5.0-1.79","7265","[""videos/slow_med_c10_tan.mov""]","j","response","false"
"","","","","","html-keyboard-response","301","690899","0.0-5.0-0.80","null","<div style=""font-size:60px;"">+</div>","null","fixation",""
"","","","","","video-keyboard-response","302","701166","0.0-5.0-1.80","10265","[""videos/slow_low_c7_tan.mov""]","j","response","false"
"","","","","","html-keyboard-response","303","701918","0.0-5.0-0.81","null","<div style=""font-size:60px;"">+</div>","null","fixation",""
"","","","","","video-keyboard-response","304","705402","0.0-5.0-1.81","3483","[""videos/slow_med_c4_purple.mov""]","f","response","false"
"","","","","","html-keyboard-response","305","706404","0.0-5.0-0.82","null","<div style=""font-size:60px;"">+</div>","null","fixation",""
"","","","","","video-keyboard-response","306","707885","0.0-5.0-1.82","1479","[""videos/med_high_c13_purple_mirror.mov""]","j","response","false"
"","","","","","html-keyboard-response","307","708888","0.0-5.0-0.83","null","<div style=""font-size:60px;"">+</div>","null","fixation",""
"","","","","","video-keyboard-response","308","714886","0.0-5.0-1.83","5997","[""videos/slow_high_c2_pink.mov""]","f","response","false"
"","","","","","html-keyboard-response","309","715639","0.0-5.0-0.84","null","<div style=""font-size:60px;"">+</div>","null","fixation",""
"","","","","","video-keyboard-response","310","716844","0.0-5.0-1.84","1204","[""videos/slow_high_c3_pink_mirror.mov""]","f","response","false"
"","","","","","html-keyboard-response","311","717345","0.0-5.0-0.85","null","<div style=""font-size:60px;"">+</div>","null","fixation",""
"","","","","","video-keyboard-response","312","718640","0.0-5.0-1.85","1294","[""videos/slow_med_c1_purple_mirror.mov""]","f","response","false"
"","","","","","html-keyboard-response","313","719392","0.0-5.0-0.86","null","<div style=""font-size:60px;"">+</div>","null","fixation",""
"","","","","","video-keyboard-response","314","721283","0.0-5.0-1.86","1890","[""videos/fast_low_c16_purple.mov""]","f","response","false"
"","","","","","html-keyboard-response","315","721784","0.0-5.0-0.87","null","<div style=""font-size:60px;"">+</div>","null","fixation",""
"","","","","","video-keyboard-response","316","722773","0.0-5.0-1.87","988","[""videos/slow_high_c13_pink.mov""]","j","response","false"
"","","","","","html-keyboard-response","317","723274","0.0-5.0-0.88","null","<div style=""font-size:60px;"">+</div>","null","fixation",""
"","","","","","video-keyboard-response","318","747263","0.0-5.0-1.88","23987","[""videos/med_low_c8_tan.mov""]","f","response","false"
"","","","","","html-keyboard-response","319","747765","0.0-5.0-0.89","null","<div style=""font-size:60px;"">+</div>","null","fixation",""
"","","","","","video-keyboard-response","320","749437","0.0-5.0-1.89","1670","[""videos/slow_high_c4_purple.mov""]","f","response","false"
"","","","","","html-keyboard-response","321","750439","0.0-5.0-0.90","null","<div style=""font-size:60px;"">+</div>","null","fixation",""
"","","","","","video-keyboard-response","322","751723","0.0-5.0-1.90","1283","[""videos/fast_med_c15_tan.mov""]","f","response","false"
"","","","","","html-keyboard-response","323","752475","0.0-5.0-0.91","null","<div style=""font-size:60px;"">+</div>","null","fixation",""
"","","","","","video-keyboard-response","324","754985","0.0-5.0-1.91","2508","[""videos/fast_low_c17_pink_mirror.mov""]","f","response","false"
"","","","","","html-keyboard-response","325","755736","0.0-5.0-0.92","null","<div style=""font-size:60px;"">+</div>","null","fixation",""
"","","","","","video-keyboard-response","326","756944","0.0-5.0-1.92","1207","[""videos/fast_med_c11_pink.mov""]","f","response","false"
"","","","","","html-keyboard-response","327","757696","0.0-5.0-0.93","null","<div style=""font-size:60px;"">+</div>","null","fixation",""
"","","","","","video-keyboard-response","328","759377","0.0-5.0-1.93","1680","[""videos/fast_high_c11_tan.mov""]","f","response","false"
"","","","","","html-keyboard-response","329","760129","0.0-5.0-0.94","null","<div style=""font-size:60px;"">+</div>","null","fixation",""
"","","","","","video-keyboard-response","330","761389","0.0-5.0-1.94","1258","[""videos/med_high_c13_tan.mov""]","j","response","false"
"","","","","","html-keyboard-response","331","762703","0.0-5.0-2.94-0.94","1314","<p>You can take a quick break now if you need it.</p>
      <p>Press the spacebar to continue.</p>"," ","",""
"","","","","","html-keyboard-response","332","763455","0.0-5.0-0.95","null","<div style=""font-size:60px;"">+</div>","null","fixation",""
"","","","","","video-keyboard-response","333","764647","0.0-5.0-1.95","1191","[""videos/med_med_c14_tan.mov""]","j","response","false"
"","","","","","html-keyboard-response","334","765398","0.0-5.0-0.96","null","<div style=""font-size:60px;"">+</div>","null","fixation",""
"","","","","","video-keyboard-response","335","766649","0.0-5.0-1.96","1250","[""videos/med_med_c6_tan.mov""]","f","response","false"
"","","","","","html-keyboard-response","336","767401","0.0-5.0-0.97","null","<div style=""font-size:60px;"">+</div>","null","fixation",""
"","","","","","video-keyboard-response","337","771508","0.0-5.0-1.97","4106","[""videos/fast_low_c16_tan_mirror.mov""]","f","response","false"
"","","","","","html-keyboard-response","338","772010","0.0-5.0-0.98","null","<div style=""font-size:60px;"">+</div>","null","fixation",""
"","","","","","video-keyboard-response","339","773373","0.0-5.0-1.98","1361","[""videos/med_med_c11_pink_mirror.mov""]","j","response","false"
"","","","","","html-keyboard-response","340","774374","0.0-5.0-0.99","null","<div style=""font-size:60px;"">+</div>","null","fixation",""
"","","","","","video-keyboard-response","341","775977","0.0-5.0-1.99","1602","[""videos/fast_med_c15_teal_mirror.mov""]","f","response","false"
"","","","","","html-keyboard-response","342","776478","0.0-5.0-0.100","null","<div style=""font-size:60px;"">+</div>","null","fixation",""
"","","","","","video-keyboard-response","343","778527","0.0-5.0-1.100","2048","[""videos/fast_med_c13_teal_mirror.mov""]","f","response","false"
"","","","","","html-keyboard-response","344","779278","0.0-5.0-0.101","null","<div style=""font-size:60px;"">+</div>","null","fixation",""
"","","","","","video-keyboard-response","345","780699","0.0-5.0-1.101","1420","[""videos/med_high_c10_pink_mirror.mov""]","j","response","false"
"","","","","","html-keyboard-response","346","781201","0.0-5.0-0.102","null","<div style=""font-size:60px;"">+</div>","null","fixation",""
"","","","","","video-keyboard-response","347","782603","0.0-5.0-1.102","1400","[""videos/slow_low_c3_pink.mov""]","f","response","false"
"","","","","","html-keyboard-response","348","783354","0.0-5.0-0.103","null","<div style=""font-size:60px;"">+</div>","null","fixation",""
"","","","","","video-keyboard-response","349","784780","0.0-5.0-1.103","1424","[""videos/slow_high_c1_pink_mirror.mov""]","f","response","false"
"","","","","","html-keyboard-response","350","785282","0.0-5.0-0.104","null","<div style=""font-size:60px;"">+</div>","null","fixation",""
"","","","","","video-keyboard-response","351","787195","0.0-5.0-1.104","1912","[""videos/med_low_c7_purple_mirror.mov""]","f","response","false"
"","","","","","html-keyboard-response","352","787947","0.0-5.0-0.105","null","<div style=""font-size:60px;"">+</div>","null","fixation",""
"","","","","","video-keyboard-response","353","789524","0.0-5.0-1.105","1576","[""videos/fast_med_c17_purple.mov""]","f","response","false"
"","","","","","html-keyboard-response","354","790026","0.0-5.0-0.106","null","<div style=""font-size:60px;"">+</div>","null","fixation",""
"","","","","","video-keyboard-response","355","793453","0.0-5.0-1.106","3425","[""videos/med_med_c8_teal_mirror.mov""]","f","response","false"
"","","","","","html-keyboard-response","356","794205","0.0-5.0-0.107","null","<div style=""font-size:60px;"">+</div>","null","fixation",""
"","","","","","video-keyboard-response","357","795371","0.0-5.0-1.107","1165","[""videos/med_high_c3_pink_mirror.mov""]","f","response","false"
"","","","","","html-keyboard-response","358","796373","0.0-5.0-0.108","null","<div style=""font-size:60px;"">+</div>","null","fixation",""
"","","","","","video-keyboard-response","359","797715","0.0-5.0-1.108","1340","[""videos/slow_high_c6_teal.mov""]","j","response","false"
"","","","","","html-keyboard-response","360","798717","0.0-5.0-0.109","null","<div style=""font-size:60px;"">+</div>","null","fixation",""
"","","","","","video-keyboard-response","361","803094","0.0-5.0-1.109","4376","[""videos/med_low_c9_tan.mov""]","j","response","false"
"","","","","","html-keyboard-response","362","803845","0.0-5.0-0.110","null","<div style=""font-size:60px;"">+</div>","null","fixation",""
"","","","","","video-keyboard-response","363","805442","0.0-5.0-1.110","1596","[""videos/slow_high_c2_purple_mirror.mov""]","f","response","false"
"","","","","","html-keyboard-response","364","806444","0.0-5.0-0.111","null","<div style=""font-size:60px;"">+</div>","null","fixation",""
"","","","","","video-keyboard-response","365","810757","0.0-5.0-1.111","4311","[""videos/med_high_c5_tan_mirror.mov""]","f","response","false"
"","","","","","html-keyboard-response","366","811510","0.0-5.0-0.112","null","<div style=""font-size:60px;"">+</div>","null","fixation",""
"","","","","","video-keyboard-response","367","813250","0.0-5.0-1.112","1739","[""videos/slow_high_c3_teal.mov""]","f","response","false"
"","","","","","html-keyboard-response","368","814252","0.0-5.0-0.113","null","<div style=""font-size:60px;"">+</div>","null","fixation",""
"","","","","","video-keyboard-response","369","817253","0.0-5.0-1.113","3000","[""videos/fast_low_c15_purple.mov""]","f","response","false"
"","","","","","html-keyboard-response","370","818255","0.0-5.0-0.114","null","<div style=""font-size:60px;"">+</div>","null","fixation",""
"","","","","","video-keyboard-response","371","824781","0.0-5.0-1.114","6525","[""videos/med_high_c8_tan_mirror.mov""]","f","response","false"
"","","","","","html-keyboard-response","372","825985","0.0-5.0-2.114-0.114","1204","<p>You can take a quick break now if you need it.</p>
      <p>Press the spacebar to continue.</p>"," ","",""
"","","","","","html-keyboard-response","373","826987","0.0-5.0-0.115","null","<div style=""font-size:60px;"">+</div>","null","fixation",""
"","","","","","video-keyboard-response","374","828345","0.0-5.0-1.115","1356","[""videos/slow_med_c7_pink_mirror.mov""]","j","response","false"
"","","","","","html-keyboard-response","375","829096","0.0-5.0-0.116","null","<div style=""font-size:60px;"">+</div>","null","fixation",""
"","","","","","video-keyboard-response","376","830526","0.0-5.0-1.116","1429","[""videos/med_high_c10_tan.mov""]","j","response","false"
"","","","","","html-keyboard-response","377","831027","0.0-5.0-0.117","null","<div style=""font-size:60px;"">+</div>","null","fixation",""
"","","","","","video-keyboard-response","378","832375","0.0-5.0-1.117","1347","[""videos/fast_high_c15_purple.mov""]","j","response","false"
"","","","","","html-keyboard-response","379","833126","0.0-5.0-0.118","null","<div style=""font-size:60px;"">+</div>","null","fixation",""
"","","","","","video-keyboard-response","380","834558","0.0-5.0-1.118","1430","[""videos/slow_low_c3_teal_mirror.mov""]","f","response","false"
"","","","","","html-keyboard-response","381","835060","0.0-5.0-0.119","null","<div style=""font-size:60px;"">+</div>","null","fixation",""
"","","","","","video-keyboard-response","382","840848","0.0-5.0-1.119","5787","[""videos/fast_low_c17_tan.mov""]","f","response","false"
"","","","","","html-keyboard-response","383","841600","0.0-5.0-0.120","null","<div style=""font-size:60px;"">+</div>","null","fixation",""
"","","","","","video-keyboard-response","384","846327","0.0-5.0-1.120","4725","[""videos/slow_high_c2_teal_mirror.mov""]","f","response","false"
"","","","","","html-keyboard-response","385","847328","0.0-5.0-0.121","null","<div style=""font-size:60px;"">+</div>","null","fixation",""
"","","","","","video-keyboard-response","386","849565","0.0-5.0-1.121","2236","[""videos/slow_med_c3_purple_mirror.mov""]","f","response","false"
"","","","","","html-keyboard-response","387","850566","0.0-5.0-0.122","null","<div style=""font-size:60px;"">+</div>","null","fixation",""
"","","","","","video-keyboard-response","388","858614","0.0-5.0-1.122","8047","[""videos/slow_med_c4_pink_mirror.mov""]","j","response","false"
"","","","","","html-keyboard-response","389","859115","0.0-5.0-0.123","null","<div style=""font-size:60px;"">+</div>","null","fixation",""
"","","","","","video-keyboard-response","390","871215","0.0-5.0-1.123","12099","[""videos/med_med_c14_teal_mirror.mov""]","j","response","false"
"","","","","","html-keyboard-response","391","871967","0.0-5.0-0.124","null","<div style=""font-size:60px;"">+</div>","null","fixation",""
"","","","","","video-keyboard-response","392","873134","0.0-5.0-1.124","1165","[""videos/slow_med_c2_pink.mov""]","f","response","false"
"","","","","","html-keyboard-response","393","873886","0.0-5.0-0.125","null","<div style=""font-size:60px;"">+</div>","null","fixation",""
"","","","","","video-keyboard-response","394","896009","0.0-5.0-1.125","22122","[""videos/slow_low_c12_teal_mirror.mov""]","f","response","false"
"","","","","","html-keyboard-response","395","896761","0.0-5.0-0.126","null","<div style=""font-size:60px;"">+</div>","null","fixation",""
"","","","","","video-keyboard-response","396","898077","0.0-5.0-1.126","1314","[""videos/fast_high_c8_purple.mov""]","f","response","false"
"","","","","","html-keyboard-response","397","898578","0.0-5.0-0.127","null","<div style=""font-size:60px;"">+</div>","null","fixation",""
"","","","","","video-keyboard-response","398","900084","0.0-5.0-1.127","1505","[""videos/med_low_c10_purple_mirror.mov""]","j","response","false"
"","","","","","html-keyboard-response","399","900585","0.0-5.0-0.128","null","<div style=""font-size:60px;"">+</div>","null","fixation",""
"","","","","","video-keyboard-response","400","908634","0.0-5.0-1.128","8048","[""videos/slow_low_c4_pink_mirror.mov""]","j","response","false"
"","","","","","html-keyboard-response","401","909387","0.0-5.0-0.129","null","<div style=""font-size:60px;"">+</div>","null","fixation",""
"","","","","","video-keyboard-response","402","910596","0.0-5.0-1.129","1208","[""videos/med_low_c2_tan.mov""]","f","response","false"
"","","","","","html-keyboard-response","403","911097","0.0-5.0-0.130","null","<div style=""font-size:60px;"">+</div>","null","fixation",""
"","","","","","video-keyboard-response","404","912823","0.0-5.0-1.130","1725","[""videos/med_med_c9_tan_mirror.mov""]","j","response","false"
"","","","","","html-keyboard-response","405","913824","0.0-5.0-0.131","null","<div style=""font-size:60px;"">+</div>","null","fixation",""
"","","","","","video-keyboard-response","406","915856","0.0-5.0-1.131","2032","[""videos/fast_high_c10_pink.mov""]","f","response","false"
"","","","","","html-keyboard-response","407","916357","0.0-5.0-0.132","null","<div style=""font-size:60px;"">+</div>","null","fixation",""
"","","","","","video-keyboard-response","408","917574","0.0-5.0-1.132","1216","[""videos/fast_med_c14_tan.mov""]","f","response","false"
"","","","","","html-keyboard-response","409","918075","0.0-5.0-0.133","null","<div style=""font-size:60px;"">+</div>","null","fixation",""
"","","","","","video-keyboard-response","410","919689","0.0-5.0-1.133","1613","[""videos/fast_high_c4_teal_mirror.mov""]","f","response","false"
"","","","","","html-keyboard-response","411","920191","0.0-5.0-0.134","null","<div style=""font-size:60px;"">+</div>","null","fixation",""
"","","","","","video-keyboard-response","412","921953","0.0-5.0-1.134","1760","[""videos/med_med_c9_pink.mov""]","j","response","false"
"","","","","","html-keyboard-response","413","925550","0.0-5.0-2.134-0.134","3596","<p>You can take a quick break now if you need it.</p>
      <p>Press the spacebar to continue.</p>"," ","",""
"","","","","","html-keyboard-response","414","926551","0.0-5.0-0.135","null","<div style=""font-size:60px;"">+</div>","null","fixation",""
"","","","","","video-keyboard-response","415","931488","0.0-5.0-1.135","4937","[""videos/med_low_c5_purple.mov""]","j","response","false"
"","","","","","html-keyboard-response","416","932240","0.0-5.0-0.136","null","<div style=""font-size:60px;"">+</div>","null","fixation",""
"","","","","","video-keyboard-response","417","933989","0.0-5.0-1.136","1748","[""videos/slow_low_c1_tan.mov""]","j","response","false"
"","","","","","html-keyboard-response","418","934990","0.0-5.0-0.137","null","<div style=""font-size:60px;"">+</div>","null","fixation",""
"","","","","","video-keyboard-response","419","938190","0.0-5.0-1.137","3199","[""videos/med_low_c9_pink_mirror.mov""]","j","response","false"
"","","","","","html-keyboard-response","420","938943","0.0-5.0-0.138","null","<div style=""font-size:60px;"">+</div>","null","fixation",""
"","","","","","video-keyboard-response","421","941055","0.0-5.0-1.138","2112","[""videos/slow_low_c2_teal_mirror.mov""]","f","response","false"
"","","","","","html-keyboard-response","422","941557","0.0-5.0-0.139","null","<div style=""font-size:60px;"">+</div>","null","fixation",""
"","","","","","video-keyboard-response","423","943885","0.0-5.0-1.139","2327","[""videos/fast_med_c17_teal_mirror.mov""]","f","response","false"
"","","","","","html-keyboard-response","424","944388","0.0-5.0-0.140","null","<div style=""font-size:60px;"">+</div>","null","fixation",""
"","","","","","video-keyboard-response","425","948613","0.0-5.0-1.140","4224","[""videos/fast_high_c13_tan.mov""]","f","response","false"
"","","","","","html-keyboard-response","426","949616","0.0-5.0-0.141","null","<div style=""font-size:60px;"">+</div>","null","fixation",""
"","","","","","video-keyboard-response","427","953324","0.0-5.0-1.141","3707","[""videos/med_high_c6_teal.mov""]","f","response","false"
"","","","","","html-keyboard-response","428","954076","0.0-5.0-0.142","null","<div style=""font-size:60px;"">+</div>","null","fixation",""
"","","","","","video-keyboard-response","429","955214","0.0-5.0-1.142","1136","[""videos/med_med_c4_purple_mirror.mov""]","f","response","false"
"","","","","","html-keyboard-response","430","955965","0.0-5.0-0.143","null","<div style=""font-size:60px;"">+</div>","null","fixation",""
"","","","","","video-keyboard-response","431","957585","0.0-5.0-1.143","1619","[""videos/slow_low_c2_tan_mirror.mov""]","f","response","false"
"","","","","","html-keyboard-response","432","959395","0.0-6.0","1809","<p>You can take a quick break now if you need it.</p>
      <p>Press the spacebar to continue.</p>"," ","",""
"","","","","","html-keyboard-response","433","960398","0.0-7.0-0.0","null","<div style=""font-size:60px;"">+</div>","null","fixation",""
"","","","","","video-keyboard-response","434","962813","0.0-7.0-1.0","2414","[""videos/med_med_c8_white.mov""]","f","response","false"
"","","","","","html-keyboard-response","435","963313","0.0-7.0-0.1","null","<div style=""font-size:60px;"">+</div>","null","fixation",""
"","","","","","video-keyboard-response","436","964945","0.0-7.0-1.1","1631","[""videos/slow_med_c10_white_mirror.mov""]","j","response","false"
"","","","","","html-keyboard-response","437","965946","0.0-7.0-0.2","null","<div style=""font-size:60px;"">+</div>","null","fixation",""
"","","","","","video-keyboard-response","438","967329","0.0-7.0-1.2","1381","[""videos/fast_high_c17_white.mov""]","j","response","false"
"","","","","","html-keyboard-response","439","967831","0.0-7.0-0.3","null","<div style=""font-size:60px;"">+</div>","null","fixation",""
"","","","","","video-keyboard-response","440","970405","0.0-7.0-1.3","2573","[""videos/med_high_c13_white.mov""]","f","response","false"
"","","","","","html-keyboard-response","441","970907","0.0-7.0-0.4","null","<div style=""font-size:60px;"">+</div>","null","fixation",""
"","","","","","video-keyboard-response","442","977778","0.0-7.0-1.4","6870","[""videos/med_med_c11_white.mov""]","f","response","false"
"","","","","","html-keyboard-response","443","978780","0.0-7.0-0.5","null","<div style=""font-size:60px;"">+</div>","null","fixation",""
"","","","","","video-keyboard-response","444","979930","0.0-7.0-1.5","1148","[""videos/med_high_c6_white_mirror.mov""]","f","response","false"
"","","","","","html-keyboard-response","445","980431","0.0-7.0-0.6","null","<div style=""font-size:60px;"">+</div>","null","fixation",""
"","","","","","video-keyboard-response","446","990275","0.0-7.0-1.6","9842","[""videos/med_low_c12_white_mirror.mov""]","j","response","false"
"","","","","","html-keyboard-response","447","990776","0.0-7.0-0.7","null","<div style=""font-size:60px;"">+</div>","null","fixation",""
"","","","","","video-keyboard-response","448","992059","0.0-7.0-1.7","1281","[""videos/fast_med_c11_white_mirror.mov""]","f","response","false"
"","","","","","html-keyboard-response","449","992811","0.0-7.0-0.8","null","<div style=""font-size:60px;"">+</div>","null","fixation",""
"","","","","","video-keyboard-response","450","1004070","0.0-7.0-1.8","11258","[""videos/fast_low_c17_white.mov""]","f","response","false"
"","","","","","html-keyboard-response","451","1004571","0.0-7.0-0.9","null","<div style=""font-size:60px;"">+</div>","null","fixation",""
"","","","","","video-keyboard-response","452","1011999","0.0-7.0-1.9","7427","[""videos/fast_low_c16_white_mirror.mov""]","f","response","false"
"","","","","","html-keyboard-response","453","1012501","0.0-7.0-0.10","null","<div style=""font-size:60px;"">+</div>","null","fixation",""
"","","","","","video-keyboard-response","454","1016074","0.0-7.0-1.10","3571","[""videos/med_med_c14_white_mirror.mov""]","j","response","false"
"","","","","","html-keyboard-response","455","1017128","0.0-7.0-2.10-0.10","1054","<p>You can take a quick break now if you need it.</p>
      <p>Press the spacebar to continue.</p>"," ","",""
"","","","","","html-keyboard-response","456","1017880","0.0-7.0-0.11","null","<div style=""font-size:60px;"">+</div>","null","fixation",""
"","","","","","video-keyboard-response","457","1019302","0.0-7.0-1.11","1420","[""videos/med_high_c1_white_mirror.mov""]","f","response","false"
"","","","","","html-keyboard-response","458","1019803","0.0-7.0-0.12","null","<div style=""font-size:60px;"">+</div>","null","fixation",""
"","","","","","video-keyboard-response","459","1021714","0.0-7.0-1.12","1910","[""videos/fast_high_c11_white_mirror.mov""]","f","response","false"
"","","","","","html-keyboard-response","460","1022717","0.0-7.0-0.13","null","<div style=""font-size:60px;"">+</div>","null","fixation",""
"","","","","","video-keyboard-response","461","1025831","0.0-7.0-1.13","3113","[""videos/fast_high_c13_white.mov""]","j","response","false"
"","","","","","html-keyboard-response","462","1026834","0.0-7.0-0.14","null","<div style=""font-size:60px;"">+</div>","null","fixation",""
"","","","","","video-keyboard-response","463","1027919","0.0-7.0-1.14","1083","[""videos/med_high_c3_white.mov""]","f","response","false"
"","","","","","html-keyboard-response","464","1028421","0.0-7.0-0.15","null","<div style=""font-size:60px;"">+</div>","null","fixation",""
"","","","","","video-keyboard-response","465","1030306","0.0-7.0-1.15","1884","[""videos/slow_high_c2_white_mirror.mov""]","f","response","false"
"","","","","","html-keyboard-response","466","1031057","0.0-7.0-0.16","null","<div style=""font-size:60px;"">+</div>","null","fixation",""
"","","","","","video-keyboard-response","467","1032215","0.0-7.0-1.16","1157","[""videos/slow_med_c1_white.mov""]","f","response","false"
"","","","","","html-keyboard-response","468","1033218","0.0-7.0-0.17","null","<div style=""font-size:60px;"">+</div>","null","fixation",""
"","","","","","video-keyboard-response","469","1034246","0.0-7.0-1.17","1027","[""videos/slow_low_c3_white_mirror.mov""]","f","response","false"
"","","","","","html-keyboard-response","470","1034748","0.0-7.0-0.18","null","<div style=""font-size:60px;"">+</div>","null","fixation",""
"","","","","","video-keyboard-response","471","1037198","0.0-7.0-1.18","2448","[""videos/slow_high_c4_white.mov""]","j","response","false"
"","","","","","html-keyboard-response","472","1037700","0.0-7.0-0.19","null","<div style=""font-size:60px;"">+</div>","null","fixation",""
"","","","","","video-keyboard-response","473","1039003","0.0-7.0-1.19","1301","[""videos/slow_low_c2_white_mirror.mov""]","f","response","false"
"","","","","","html-keyboard-response","474","1039505","0.0-7.0-0.20","null","<div style=""font-size:60px;"">+</div>","null","fixation",""
"","","","","","video-keyboard-response","475","1040995","0.0-7.0-1.20","1489","[""videos/fast_low_c5_white.mov""]","f","response","false"
"","","","","","html-keyboard-response","476","1041747","0.0-7.0-0.21","null","<div style=""font-size:60px;"">+</div>","null","fixation",""
"","","","","","video-keyboard-response","477","1043608","0.0-7.0-1.21","1859","[""videos/slow_high_c3_white.mov""]","f","response","false"
"","","","","","html-keyboard-response","478","1044610","0.0-7.0-0.22","null","<div style=""font-size:60px;"">+</div>","null","fixation",""
"","","","","","video-keyboard-response","479","1046840","0.0-7.0-1.22","2228","[""videos/med_low_c9_white_mirror.mov""]","j","response","false"
"","","","","","html-keyboard-response","480","1047841","0.0-7.0-0.23","null","<div style=""font-size:60px;"">+</div>","null","fixation",""
"","","","","","video-keyboard-response","481","1048899","0.0-7.0-1.23","1057","[""videos/med_med_c1_white.mov""]","f","response","false"
"","","","","","html-keyboard-response","482","1049651","0.0-7.0-0.24","null","<div style=""font-size:60px;"">+</div>","null","fixation",""
"","","","","","video-keyboard-response","483","1051065","0.0-7.0-1.24","1412","[""videos/slow_med_c3_white.mov""]","f","response","false"
"","","","","","html-keyboard-response","484","1051817","0.0-7.0-0.25","null","<div style=""font-size:60px;"">+</div>","null","fixation",""
"","","","","","video-keyboard-response","485","1053133","0.0-7.0-1.25","1315","[""videos/slow_high_c13_white_mirror.mov""]","j","response","false"
"","","","","","html-keyboard-response","486","1053634","0.0-7.0-0.26","null","<div style=""font-size:60px;"">+</div>","null","fixation",""
"","","","","","video-keyboard-response","487","1054944","0.0-7.0-1.26","1309","[""videos/fast_high_c8_white_mirror.mov""]","f","response","false"
"","","","","","html-keyboard-response","488","1055446","0.0-7.0-0.27","null","<div style=""font-size:60px;"">+</div>","null","fixation",""
"","","","","","video-keyboard-response","489","1056854","0.0-7.0-1.27","1408","[""videos/med_med_c4_white_mirror.mov""]","f","response","false"
"","","","","","html-keyboard-response","490","1057607","0.0-7.0-0.28","null","<div style=""font-size:60px;"">+</div>","null","fixation",""
"","","","","","video-keyboard-response","491","1059579","0.0-7.0-1.28","1970","[""videos/fast_med_c15_white.mov""]","j","response","false"
"","","","","","html-keyboard-response","492","1060581","0.0-7.0-0.29","null","<div style=""font-size:60px;"">+</div>","null","fixation",""
"","","","","","video-keyboard-response","493","1062961","0.0-7.0-1.29","2378","[""videos/med_high_c10_white_mirror.mov""]","j","response","false"
"","","","","","html-keyboard-response","494","1063463","0.0-7.0-0.30","null","<div style=""font-size:60px;"">+</div>","null","fixation",""
"","","","","","video-keyboard-response","495","1065176","0.0-7.0-1.30","1712","[""videos/fast_med_c17_white_mirror.mov""]","j","response","false"
"","","","","","html-keyboard-response","496","1066143","0.0-7.0-2.30-0.30","966","<p>You can take a quick break now if you need it.</p>
      <p>Press the spacebar to continue.</p>"," ","",""
"","","","","","html-keyboard-response","497","1066643","0.0-7.0-0.31","null","<div style=""font-size:60px;"">+</div>","null","fixation",""
"","","","","","video-keyboard-response","498","1068222","0.0-7.0-1.31","1577","[""videos/slow_low_c7_white_mirror.mov""]","j","response","false"
"","","","","","html-keyboard-response","499","1068973","0.0-7.0-0.32","null","<div style=""font-size:60px;"">+</div>","null","fixation",""
"","","","","","video-keyboard-response","500","1070820","0.0-7.0-1.32","1846","[""videos/med_low_c7_white_mirror.mov""]","f","response","false"
"","","","","","html-keyboard-response","501","1071322","0.0-7.0-0.33","null","<div style=""font-size:60px;"">+</div>","null","fixation",""
"","","","","","video-keyboard-response","502","1072739","0.0-7.0-1.33","1415","[""videos/slow_med_c2_white_mirror.mov""]","f","response","false"
"","","","","","html-keyboard-response","503","1073491","0.0-7.0-0.34","null","<div style=""font-size:60px;"">+</div>","null","fixation",""
"","","","","","video-keyboard-response","504","1074804","0.0-7.0-1.34","1312","[""videos/slow_low_c12_white.mov""]","j","response","false"
"","","","","","html-keyboard-response","505","1075806","0.0-7.0-0.35","null","<div style=""font-size:60px;"">+</div>","null","fixation",""
"","","","","","video-keyboard-response","506","1082332","0.0-7.0-1.35","6524","[""videos/slow_low_c4_white.mov""]","f","response","false"
"","","","","","html-keyboard-response","507","1083333","0.0-7.0-0.36","null","<div style=""font-size:60px;"">+</div>","null","fixation",""
"","","","","","video-keyboard-response","508","1085328","0.0-7.0-1.36","1993","[""videos/fast_low_c14_white_mirror.mov""]","f","response","false"
"","","","","","html-keyboard-response","509","1086330","0.0-7.0-0.37","null","<div style=""font-size:60px;"">+</div>","null","fixation",""
"","","","","","video-keyboard-response","510","1087520","0.0-7.0-1.37","1189","[""videos/slow_low_c1_white.mov""]","f","response","false"
"","","","","","html-keyboard-response","511","1088022","0.0-7.0-0.38","null","<div style=""font-size:60px;"">+</div>","null","fixation",""
"","","","","","video-keyboard-response","512","1090126","0.0-7.0-1.38","2103","[""videos/med_med_c9_white_mirror.mov""]","j","response","false"
"","","","","","html-keyboard-response","513","1090627","0.0-7.0-0.39","null","<div style=""font-size:60px;"">+</div>","null","fixation",""
"","","","","","video-keyboard-response","514","1095977","0.0-7.0-1.39","5348","[""videos/med_high_c7_white_mirror.mov""]","j","response","false"
"","","","","","html-keyboard-response","515","1096979","0.0-7.0-0.40","null","<div style=""font-size:60px;"">+</div>","null","fixation",""
"","","","","","video-keyboard-response","516","1098161","0.0-7.0-1.40","1180","[""videos/slow_med_c4_white_mirror.mov""]","f","response","false"
"","","","","","html-keyboard-response","517","1099164","0.0-7.0-0.41","null","<div style=""font-size:60px;"">+</div>","null","fixation",""
"","","","","","video-keyboard-response","518","1100892","0.0-7.0-1.41","1727","[""videos/med_high_c8_white.mov""]","j","response","false"
"","","","","","html-keyboard-response","519","1101394","0.0-7.0-0.42","null","<div style=""font-size:60px;"">+</div>","null","fixation",""
"","","","","","video-keyboard-response","520","1103994","0.0-7.0-1.42","2599","[""videos/fast_high_c12_white.mov""]","j","response","false"
"","","","","","html-keyboard-response","521","1104495","0.0-7.0-0.43","null","<div style=""font-size:60px;"">+</div>","null","fixation",""
"","","","","","video-keyboard-response","522","1106072","0.0-7.0-1.43","1575","[""videos/med_low_c10_white.mov""]","j","response","false"
"","","","","","html-keyboard-response","523","1106573","0.0-7.0-0.44","null","<div style=""font-size:60px;"">+</div>","null","fixation",""
"","","","","","video-keyboard-response","524","1107916","0.0-7.0-1.44","1341","[""videos/slow_low_c5_white.mov""]","j","response","false"
"","","","","","html-keyboard-response","525","1108668","0.0-7.0-0.45","null","<div style=""font-size:60px;"">+</div>","null","fixation",""
"","","","","","video-keyboard-response","526","1111055","0.0-7.0-1.45","2386","[""videos/fast_high_c4_white_mirror.mov""]","f","response","false"
"","","","","","html-keyboard-response","527","1112057","0.0-7.0-0.46","null","<div style=""font-size:60px;"">+</div>","null","fixation",""
"","","","","","video-keyboard-response","528","1113630","0.0-7.0-1.46","1572","[""videos/med_low_c16_white.mov""]","j","response","false"
"","","","","","html-keyboard-response","529","1114132","0.0-7.0-0.47","null","<div style=""font-size:60px;"">+</div>","null","fixation",""
"","","","","","video-keyboard-response","530","1117637","0.0-7.0-1.47","3503","[""videos/fast_high_c15_white_mirror.mov""]","j","response","false"
"","","","","","html-keyboard-response","531","1118638","0.0-7.0-0.48","null","<div style=""font-size:60px;"">+</div>","null","fixation",""
"","","","","","video-keyboard-response","532","1119939","0.0-7.0-1.48","1299","[""videos/med_high_c5_white.mov""]","f","response","false"
"","","","","","html-keyboard-response","533","1120691","0.0-7.0-0.49","null","<div style=""font-size:60px;"">+</div>","null","fixation",""
"","","","","","video-keyboard-response","534","1128457","0.0-7.0-1.49","7765","[""videos/med_low_c8_white.mov""]","j","response","false"
"","","","","","html-keyboard-response","535","1129459","0.0-7.0-0.50","null","<div style=""font-size:60px;"">+</div>","null","fixation",""
"","","","","","video-keyboard-response","536","1130683","0.0-7.0-1.50","1223","[""videos/med_low_c5_white.mov""]","f","response","false"
"","","","","","html-keyboard-response","537","1132744","0.0-7.0-2.50-0.50","2061","<p>You can take a quick break now if you need it.</p>
      <p>Press the spacebar to continue.</p>"," ","",""
"","","","","","html-keyboard-response","538","1133496","0.0-7.0-0.51","null","<div style=""font-size:60px;"">+</div>","null","fixation",""
"","","","","","video-keyboard-response","539","1134674","0.0-7.0-1.51","1176","[""videos/fast_med_c16_white.mov""]","f","response","false"
"","","","","","html-keyboard-response","540","1135425","0.0-7.0-0.52","null","<div style=""font-size:60px;"">+</div>","null","fixation",""
"","","","","","video-keyboard-response","541","1137325","0.0-7.0-1.52","1899","[""videos/med_med_c7_white_mirror.mov""]","j","response","false"
"","","","","","html-keyboard-response","542","1138077","0.0-7.0-0.53","null","<div style=""font-size:60px;"">+</div>","null","fixation",""
"","","","","","video-keyboard-response","543","1139367","0.0-7.0-1.53","1289","[""videos/fast_med_c6_white.mov""]","f","response","false"
"","","","","","html-keyboard-response","544","1140119","0.0-7.0-0.54","null","<div style=""font-size:60px;"">+</div>","null","fixation",""
"","","","","","video-keyboard-response","545","1142570","0.0-7.0-1.54","2450","[""videos/med_med_c6_white.mov""]","f","response","false"
"","","","","","html-keyboard-response","546","1143322","0.0-7.0-0.55","null","<div style=""font-size:60px;"">+</div>","null","fixation",""
"","","","","","video-keyboard-response","547","1144626","0.0-7.0-1.55","1303","[""videos/slow_high_c1_white.mov""]","f","response","false"
"","","","","","html-keyboard-response","548","1145378","0.0-7.0-0.56","null","<div style=""font-size:60px;"">+</div>","null","fixation",""
"","","","","","video-keyboard-response","549","1146970","0.0-7.0-1.56","1591","[""videos/fast_high_c10_white.mov""]","f","response","false"
"","","","","","html-keyboard-response","550","1147972","0.0-7.0-0.57","null","<div style=""font-size:60px;"">+</div>","null","fixation",""
"","","","","","video-keyboard-response","551","1149304","0.0-7.0-1.57","1330","[""videos/fast_med_c13_white_mirror.mov""]","f","response","false"
"","","","","","html-keyboard-response","552","1150055","0.0-7.0-0.58","null","<div style=""font-size:60px;"">+</div>","null","fixation",""
"","","","","","video-keyboard-response","553","1151582","0.0-7.0-1.58","1526","[""videos/med_low_c2_white_mirror.mov""]","f","response","false"
"","","","","","html-keyboard-response","554","1152584","0.0-7.0-0.59","null","<div style=""font-size:60px;"">+</div>","null","fixation",""
"","","","","","video-keyboard-response","555","1155729","0.0-7.0-1.59","3143","[""videos/fast_low_c12_white_mirror.mov""]","f","response","false"
"","","","","","html-keyboard-response","556","1156229","0.0-7.0-0.60","null","<div style=""font-size:60px;"">+</div>","null","fixation",""
"","","","","","video-keyboard-response","557","1157915","0.0-7.0-1.60","1685","[""videos/fast_med_c14_white.mov""]","f","response","false"
"","","","","","html-keyboard-response","558","1158417","0.0-7.0-0.61","null","<div style=""font-size:60px;"">+</div>","null","fixation",""
"","","","","","video-keyboard-response","559","1159903","0.0-7.0-1.61","1485","[""videos/slow_med_c7_white.mov""]","j","response","false"
"","","","","","html-keyboard-response","560","1160905","0.0-7.0-0.62","null","<div style=""font-size:60px;"">+</div>","null","fixation",""
"","","","","","video-keyboard-response","561","1162503","0.0-7.0-1.62","1597","[""videos/slow_high_c6_white_mirror.mov""]","j","response","false"
"","","","","","html-keyboard-response","562","1163004","0.0-7.0-0.63","null","<div style=""font-size:60px;"">+</div>","null","fixation",""
"","","","","","video-keyboard-response","563","1165722","0.0-7.0-1.63","2717","[""videos/fast_low_c15_white.mov""]","j","response","false"
"","","","","","html-keyboard-response","564","1166725","0.0-7.0-0.64","null","<div style=""font-size:60px;"">+</div>","null","fixation",""
"","","","","","video-keyboard-response","565","1168187","0.0-7.0-1.64","1461","[""videos/slow_med_c5_white.mov""]","j","response","false"
"","","","","","html-keyboard-response","566","1173646","0.0-8.0","5459","<p>Thank you for completing the experiment.</p>"," ","",""
