"success","timeout","failed_images","failed_audio","failed_video","trial_type","trial_index","time_elapsed","internal_node_id","rt","stimulus","response","task","test_trial"
"true","false","[]","[]","[]","preload","0","1381","0.0-0.0","","","","",""
"","","","","","html-keyboard-response","1","508240","0.0-1.0","260998","Welcome to the experiment. Press any key to begin.","arrowright","",""
"","","","","","html-keyboard-response","2","607476","0.0-2.0","99233","
        <p>In this experiment, you will be shown short movies containing two objects. One of the objects will be moving toward the other.</p>
        <p>In these movies, the moving object either collides with the stationary object, or it comes to a stop before reaching the stationary object.
          However, you will be shown a clipped version of the movie that does not reveal the ending.</p> 
        <p>Please watch each clip carefully. Then predict whether or not the two objects will collide later on in the video.</p>
        <p>Press the <b>""F""</b> key for <b>yes</b>, the objects will collide.</p> 
        <p>Press the <b>""J""</b> key for <b>no</b>, the objects will not collide.</p>
        <p>Press any key to start.</p>
      ","arrowright","",""
"","","","","","html-keyboard-response","3","609481","0.0-3.0-0.0","null","<div style=""font-size:60px;"">+</div>","null","fixation",""
"","","","","","video-keyboard-response","4","612046","0.0-3.0-1.0","2563","[""videos/fast_med_c6_white.mov""]","f","response","false"
"","","","","","html-keyboard-response","5","612548","0.0-3.0-0.1","null","<div style=""font-size:60px;"">+</div>","null","fixation",""
"","","","","","video-keyboard-response","6","616074","0.0-3.0-1.1","3525","[""videos/fast_low_c5_white.mov""]","j","response","false"
"","","","","","html-keyboard-response","7","616577","0.0-3.0-0.2","null","<div style=""font-size:60px;"">+</div>","null","fixation",""
"","","","","","video-keyboard-response","8","618103","0.0-3.0-1.2","1525","[""videos/slow_high_c4_white_mirror.mov""]","j","response","false"
"","","","","","html-keyboard-response","9","618605","0.0-3.0-0.3","null","<div style=""font-size:60px;"">+</div>","null","fixation",""
"","","","","","video-keyboard-response","10","620143","0.0-3.0-1.3","1536","[""videos/slow_med_c5_white.mov""]","j","response","false"
"","","","","","html-keyboard-response","11","620895","0.0-3.0-0.4","null","<div style=""font-size:60px;"">+</div>","null","fixation",""
"","","","","","video-keyboard-response","12","622462","0.0-3.0-1.4","1565","[""videos/med_low_c10_white_mirror.mov""]","j","response","false"
"","","","","","html-keyboard-response","13","623465","0.0-3.0-0.5","null","<div style=""font-size:60px;"">+</div>","null","fixation",""
"","","","","","video-keyboard-response","14","624855","0.0-3.0-1.5","1389","[""videos/slow_med_c7_white.mov""]","j","response","false"
"","","","","","html-keyboard-response","15","625608","0.0-3.0-0.6","null","<div style=""font-size:60px;"">+</div>","null","fixation",""
"","","","","","video-keyboard-response","16","626907","0.0-3.0-1.6","1298","[""videos/fast_high_c12_white.mov""]","j","response","false"
"","","","","","html-keyboard-response","17","627909","0.0-3.0-0.7","null","<div style=""font-size:60px;"">+</div>","null","fixation",""
"","","","","","video-keyboard-response","18","629522","0.0-3.0-1.7","1611","[""videos/med_low_c7_white.mov""]","j","response","false"
"","","","","","html-keyboard-response","19","630023","0.0-3.0-0.8","null","<div style=""font-size:60px;"">+</div>","null","fixation",""
"","","","","","video-keyboard-response","20","631539","0.0-3.0-1.8","1514","[""videos/slow_high_c1_white_mirror.mov""]","f","response","false"
"","","","","","html-keyboard-response","21","632040","0.0-3.0-0.9","null","<div style=""font-size:60px;"">+</div>","null","fixation",""
"","","","","","video-keyboard-response","22","633289","0.0-3.0-1.9","1248","[""videos/fast_high_c8_white_mirror.mov""]","f","response","false"
"","","","","","html-keyboard-response","23","633790","0.0-3.0-0.10","null","<div style=""font-size:60px;"">+</div>","null","fixation",""
"","","","","","video-keyboard-response","24","635091","0.0-3.0-1.10","1299","[""videos/med_low_c9_white.mov""]","j","response","false"
"","","","","","html-keyboard-response","25","636092","0.0-3.0-0.11","null","<div style=""font-size:60px;"">+</div>","null","fixation",""
"","","","","","video-keyboard-response","26","637509","0.0-3.0-1.11","1415","[""videos/fast_low_c17_white.mov""]","j","response","false"
"","","","","","html-keyboard-response","27","638510","0.0-3.0-0.12","null","<div style=""font-size:60px;"">+</div>","null","fixation",""
"","","","","","video-keyboard-response","28","640707","0.0-3.0-1.12","2195","[""videos/slow_high_c2_white_mirror.mov""]","f","response","false"
"","","","","","html-keyboard-response","29","641460","0.0-3.0-0.13","null","<div style=""font-size:60px;"">+</div>","null","fixation",""
"","","","","","video-keyboard-response","30","643004","0.0-3.0-1.13","1543","[""videos/med_med_c6_white.mov""]","f","response","false"
"","","","","","html-keyboard-response","31","643506","0.0-3.0-0.14","null","<div style=""font-size:60px;"">+</div>","null","fixation",""
"","","","","","video-keyboard-response","32","645083","0.0-3.0-1.14","1576","[""videos/fast_low_c16_white_mirror.mov""]","f","response","false"
"","","","","","html-keyboard-response","33","646086","0.0-3.0-0.15","null","<div style=""font-size:60px;"">+</div>","null","fixation",""
"","","","","","video-keyboard-response","34","647370","0.0-3.0-1.15","1282","[""videos/fast_high_c13_white_mirror.mov""]","f","response","false"
"","","","","","html-keyboard-response","35","647871","0.0-3.0-0.16","null","<div style=""font-size:60px;"">+</div>","null","fixation",""
"","","","","","video-keyboard-response","36","649385","0.0-3.0-1.16","1513","[""videos/med_low_c2_white.mov""]","f","response","false"
"","","","","","html-keyboard-response","37","650388","0.0-3.0-0.17","null","<div style=""font-size:60px;"">+</div>","null","fixation",""
"","","","","","video-keyboard-response","38","651693","0.0-3.0-1.17","1304","[""videos/med_low_c5_white_mirror.mov""]","f","response","false"
"","","","","","html-keyboard-response","39","652696","0.0-3.0-0.18","null","<div style=""font-size:60px;"">+</div>","null","fixation",""
"","","","","","video-keyboard-response","40","654123","0.0-3.0-1.18","1426","[""videos/fast_low_c15_white_mirror.mov""]","f","response","false"
"","","","","","html-keyboard-response","41","654874","0.0-3.0-0.19","null","<div style=""font-size:60px;"">+</div>","null","fixation",""
"","","","","","video-keyboard-response","42","656392","0.0-3.0-1.19","1516","[""videos/fast_high_c17_white_mirror.mov""]","j","response","false"
"","","","","","html-keyboard-response","43","662246","0.0-3.0-2.19-0.19","5853","<p>You can take a quick break now if you need it.</p>
      <p>Press the spacebar to continue.</p>"," ","",""
"","","","","","html-keyboard-response","44","663246","0.0-3.0-0.20","null","<div style=""font-size:60px;"">+</div>","null","fixation",""
"","","","","","video-keyboard-response","45","664339","0.0-3.0-1.20","1091","[""videos/fast_med_c11_white.mov""]","f","response","false"
"","","","","","html-keyboard-response","46","665091","0.0-3.0-0.21","null","<div style=""font-size:60px;"">+</div>","null","fixation",""
"","","","","","video-keyboard-response","47","666306","0.0-3.0-1.21","1213","[""videos/slow_med_c1_white_mirror.mov""]","f","response","false"
"","","","","","html-keyboard-response","48","667058","0.0-3.0-0.22","null","<div style=""font-size:60px;"">+</div>","null","fixation",""
"","","","","","video-keyboard-response","49","668428","0.0-3.0-1.22","1368","[""videos/med_med_c7_white.mov""]","j","response","false"
"","","","","","html-keyboard-response","50","669430","0.0-3.0-0.23","null","<div style=""font-size:60px;"">+</div>","null","fixation",""
"","","","","","video-keyboard-response","51","670891","0.0-3.0-1.23","1459","[""videos/med_low_c12_white_mirror.mov""]","j","response","false"
"","","","","","html-keyboard-response","52","671391","0.0-3.0-0.24","null","<div style=""font-size:60px;"">+</div>","null","fixation",""
"","","","","","video-keyboard-response","53","672625","0.0-3.0-1.24","1232","[""videos/med_high_c13_white_mirror.mov""]","f","response","false"
"","","","","","html-keyboard-response","54","673626","0.0-3.0-0.25","null","<div style=""font-size:60px;"">+</div>","null","fixation",""
"","","","","","video-keyboard-response","55","674596","0.0-3.0-1.25","968","[""videos/med_med_c8_white_mirror.mov""]","f","response","false"
"","","","","","html-keyboard-response","56","675348","0.0-3.0-0.26","null","<div style=""font-size:60px;"">+</div>","null","fixation",""
"","","","","","video-keyboard-response","57","676355","0.0-3.0-1.26","1006","[""videos/slow_low_c3_white_mirror.mov""]","j","response","false"
"","","","","","html-keyboard-response","58","677107","0.0-3.0-0.27","null","<div style=""font-size:60px;"">+</div>","null","fixation",""
"","","","","","video-keyboard-response","59","678306","0.0-3.0-1.27","1198","[""videos/slow_high_c6_white.mov""]","j","response","false"
"","","","","","html-keyboard-response","60","679308","0.0-3.0-0.28","null","<div style=""font-size:60px;"">+</div>","null","fixation",""
"","","","","","video-keyboard-response","61","680699","0.0-3.0-1.28","1389","[""videos/med_high_c7_white.mov""]","f","response","false"
"","","","","","html-keyboard-response","62","681201","0.0-3.0-0.29","null","<div style=""font-size:60px;"">+</div>","null","fixation",""
"","","","","","video-keyboard-response","63","682534","0.0-3.0-1.29","1332","[""videos/med_med_c11_white.mov""]","j","response","false"
"","","","","","html-keyboard-response","64","683036","0.0-3.0-0.30","null","<div style=""font-size:60px;"">+</div>","null","fixation",""
"","","","","","video-keyboard-response","65","684458","0.0-3.0-1.30","1421","[""videos/med_high_c3_white.mov""]","f","response","false"
"","","","","","html-keyboard-response","66","684959","0.0-3.0-0.31","null","<div style=""font-size:60px;"">+</div>","null","fixation",""
"","","","","","video-keyboard-response","67","686220","0.0-3.0-1.31","1260","[""videos/med_high_c1_white.mov""]","j","response","false"
"","","","","","html-keyboard-response","68","686722","0.0-3.0-0.32","null","<div style=""font-size:60px;"">+</div>","null","fixation",""
"","","","","","video-keyboard-response","69","689463","0.0-3.0-1.32","2740","[""videos/fast_low_c12_white.mov""]","f","response","false"
"","","","","","html-keyboard-response","70","690466","0.0-3.0-0.33","null","<div style=""font-size:60px;"">+</div>","null","fixation",""
"","","","","","video-keyboard-response","71","691867","0.0-3.0-1.33","1399","[""videos/med_high_c8_white.mov""]","j","response","false"
"","","","","","html-keyboard-response","72","692368","0.0-3.0-0.34","null","<div style=""font-size:60px;"">+</div>","null","fixation",""
"","","","","","video-keyboard-response","73","694590","0.0-3.0-1.34","2220","[""videos/slow_med_c3_white.mov""]","f","response","false"
"","","","","","html-keyboard-response","74","695091","0.0-3.0-0.35","null","<div style=""font-size:60px;"">+</div>","null","fixation",""
"","","","","","video-keyboard-response","75","696556","0.0-3.0-1.35","1463","[""videos/fast_high_c15_white.mov""]","j","response","false"
"","","","","","html-keyboard-response","76","697057","0.0-3.0-0.36","null","<div style=""font-size:60px;"">+</div>","null","fixation",""
"","","","","","video-keyboard-response","77","698347","0.0-3.0-1.36","1289","[""videos/med_high_c6_white_mirror.mov""]","f","response","false"
"","","","","","html-keyboard-response","78","699099","0.0-3.0-0.37","null","<div style=""font-size:60px;"">+</div>","null","fixation",""
"","","","","","video-keyboard-response","79","700159","0.0-3.0-1.37","1058","[""videos/slow_low_c5_white.mov""]","j","response","false"
"","","","","","html-keyboard-response","80","700911","0.0-3.0-0.38","null","<div style=""font-size:60px;"">+</div>","null","fixation",""
"","","","","","video-keyboard-response","81","702096","0.0-3.0-1.38","1183","[""videos/fast_high_c4_white.mov""]","j","response","false"
"","","","","","html-keyboard-response","82","703098","0.0-3.0-0.39","null","<div style=""font-size:60px;"">+</div>","null","fixation",""
"","","","","","video-keyboard-response","83","704273","0.0-3.0-1.39","1175","[""videos/fast_med_c15_white.mov""]","f","response","false"
"","","","","","html-keyboard-response","84","708293","0.0-3.0-2.39-0.39","4019","<p>You can take a quick break now if you need it.</p>
      <p>Press the spacebar to continue.</p>"," ","",""
"","","","","","html-keyboard-response","85","709045","0.0-3.0-0.40","null","<div style=""font-size:60px;"">+</div>","null","fixation",""
"","","","","","video-keyboard-response","86","710984","0.0-3.0-1.40","1938","[""videos/med_high_c5_white_mirror.mov""]","f","response","false"
"","","","","","html-keyboard-response","87","711485","0.0-3.0-0.41","null","<div style=""font-size:60px;"">+</div>","null","fixation",""
"","","","","","video-keyboard-response","88","712840","0.0-3.0-1.41","1354","[""videos/fast_med_c17_white_mirror.mov""]","f","response","false"
"","","","","","html-keyboard-response","89","713592","0.0-3.0-0.42","null","<div style=""font-size:60px;"">+</div>","null","fixation",""
"","","","","","video-keyboard-response","90","715387","0.0-3.0-1.42","1794","[""videos/slow_low_c12_white.mov""]","j","response","false"
"","","","","","html-keyboard-response","91","715889","0.0-3.0-0.43","null","<div style=""font-size:60px;"">+</div>","null","fixation",""
"","","","","","video-keyboard-response","92","716894","0.0-3.0-1.43","1004","[""videos/fast_med_c14_white_mirror.mov""]","f","response","false"
"","","","","","html-keyboard-response","93","717895","0.0-3.0-0.44","null","<div style=""font-size:60px;"">+</div>","null","fixation",""
"","","","","","video-keyboard-response","94","719386","0.0-3.0-1.44","1489","[""videos/slow_med_c2_white.mov""]","f","response","false"
"","","","","","html-keyboard-response","95","720386","0.0-3.0-0.45","null","<div style=""font-size:60px;"">+</div>","null","fixation",""
"","","","","","video-keyboard-response","96","722018","0.0-3.0-1.45","1630","[""videos/med_med_c4_white_mirror.mov""]","f","response","false"
"","","","","","html-keyboard-response","97","722519","0.0-3.0-0.46","null","<div style=""font-size:60px;"">+</div>","null","fixation",""
"","","","","","video-keyboard-response","98","723680","0.0-3.0-1.46","1160","[""videos/slow_low_c4_white_mirror.mov""]","j","response","false"
"","","","","","html-keyboard-response","99","724432","0.0-3.0-0.47","null","<div style=""font-size:60px;"">+</div>","null","fixation",""
"","","","","","video-keyboard-response","100","725839","0.0-3.0-1.47","1405","[""videos/slow_low_c1_white.mov""]","f","response","false"
"","","","","","html-keyboard-response","101","726592","0.0-3.0-0.48","null","<div style=""font-size:60px;"">+</div>","null","fixation",""
"","","","","","video-keyboard-response","102","728280","0.0-3.0-1.48","1686","[""videos/med_med_c1_white.mov""]","f","response","false"
"","","","","","html-keyboard-response","103","728781","0.0-3.0-0.49","null","<div style=""font-size:60px;"">+</div>","null","fixation",""
"","","","","","video-keyboard-response","104","730473","0.0-3.0-1.49","1691","[""videos/med_low_c8_white_mirror.mov""]","j","response","false"
"","","","","","html-keyboard-response","105","731226","0.0-3.0-0.50","null","<div style=""font-size:60px;"">+</div>","null","fixation",""
"","","","","","video-keyboard-response","106","733015","0.0-3.0-1.50","1788","[""videos/slow_med_c4_white_mirror.mov""]","f","response","false"
"","","","","","html-keyboard-response","107","733768","0.0-3.0-0.51","null","<div style=""font-size:60px;"">+</div>","null","fixation",""
"","","","","","video-keyboard-response","108","735077","0.0-3.0-1.51","1308","[""videos/fast_high_c11_white.mov""]","f","response","false"
"","","","","","html-keyboard-response","109","735578","0.0-3.0-0.52","null","<div style=""font-size:60px;"">+</div>","null","fixation",""
"","","","","","video-keyboard-response","110","736820","0.0-3.0-1.52","1240","[""videos/slow_high_c3_white.mov""]","j","response","false"
"","","","","","html-keyboard-response","111","737822","0.0-3.0-0.53","null","<div style=""font-size:60px;"">+</div>","null","fixation",""
"","","","","","video-keyboard-response","112","739129","0.0-3.0-1.53","1306","[""videos/slow_high_c13_white.mov""]","j","response","false"
"","","","","","html-keyboard-response","113","739630","0.0-3.0-0.54","null","<div style=""font-size:60px;"">+</div>","null","fixation",""
"","","","","","video-keyboard-response","114","740846","0.0-3.0-1.54","1214","[""videos/slow_low_c7_white.mov""]","j","response","false"
"","","","","","html-keyboard-response","115","741847","0.0-3.0-0.55","null","<div style=""font-size:60px;"">+</div>","null","fixation",""
"","","","","","video-keyboard-response","116","743661","0.0-3.0-1.55","1813","[""videos/med_med_c14_white_mirror.mov""]","j","response","false"
"","","","","","html-keyboard-response","117","744414","0.0-3.0-0.56","null","<div style=""font-size:60px;"">+</div>","null","fixation",""
"","","","","","video-keyboard-response","118","745426","0.0-3.0-1.56","1011","[""videos/med_med_c9_white_mirror.mov""]","j","response","false"
"","","","","","html-keyboard-response","119","746427","0.0-3.0-0.57","null","<div style=""font-size:60px;"">+</div>","null","fixation",""
"","","","","","video-keyboard-response","120","747553","0.0-3.0-1.57","1124","[""videos/fast_high_c10_white_mirror.mov""]","f","response","false"
"","","","","","html-keyboard-response","121","748554","0.0-3.0-0.58","null","<div style=""font-size:60px;"">+</div>","null","fixation",""
"","","","","","video-keyboard-response","122","749587","0.0-3.0-1.58","1031","[""videos/slow_med_c10_white_mirror.mov""]","j","response","false"
"","","","","","html-keyboard-response","123","750088","0.0-3.0-0.59","null","<div style=""font-size:60px;"">+</div>","null","fixation",""
"","","","","","video-keyboard-response","124","751311","0.0-3.0-1.59","1221","[""videos/med_low_c16_white.mov""]","j","response","false"
"","","","","","html-keyboard-response","125","761910","0.0-3.0-2.59-0.59","10599","<p>You can take a quick break now if you need it.</p>
      <p>Press the spacebar to continue.</p>"," ","",""
"","","","","","html-keyboard-response","126","762662","0.0-3.0-0.60","null","<div style=""font-size:60px;"">+</div>","null","fixation",""
"","","","","","video-keyboard-response","127","764075","0.0-3.0-1.60","1411","[""videos/fast_low_c14_white_mirror.mov""]","f","response","false"
"","","","","","html-keyboard-response","128","764576","0.0-3.0-0.61","null","<div style=""font-size:60px;"">+</div>","null","fixation",""
"","","","","","video-keyboard-response","129","766298","0.0-3.0-1.61","1721","[""videos/slow_low_c2_white_mirror.mov""]","f","response","false"
"","","","","","html-keyboard-response","130","767051","0.0-3.0-0.62","null","<div style=""font-size:60px;"">+</div>","null","fixation",""
"","","","","","video-keyboard-response","131","769084","0.0-3.0-1.62","2032","[""videos/med_high_c10_white_mirror.mov""]","j","response","false"
"","","","","","html-keyboard-response","132","769586","0.0-3.0-0.63","null","<div style=""font-size:60px;"">+</div>","null","fixation",""
"","","","","","video-keyboard-response","133","770827","0.0-3.0-1.63","1239","[""videos/fast_med_c13_white_mirror.mov""]","f","response","false"
"","","","","","html-keyboard-response","134","771328","0.0-3.0-0.64","null","<div style=""font-size:60px;"">+</div>","null","fixation",""
"","","","","","video-keyboard-response","135","772480","0.0-3.0-1.64","1150","[""videos/fast_med_c16_white.mov""]","f","response","false"
"","","","","","html-keyboard-response","136","779432","0.0-4.0","6952","<p>You can take a quick break now if you need it.</p>
      <p>Press the spacebar to continue.</p>"," ","",""
"","","","","","html-keyboard-response","137","780434","0.0-5.0-0.0","null","<div style=""font-size:60px;"">+</div>","null","fixation",""
"","","","","","video-keyboard-response","138","781872","0.0-5.0-1.0","1437","[""videos/fast_high_c13_purple_mirror.mov""]","j","response","false"
"","","","","","html-keyboard-response","139","782874","0.0-5.0-0.1","null","<div style=""font-size:60px;"">+</div>","null","fixation",""
"","","","","","video-keyboard-response","140","784291","0.0-5.0-1.1","1416","[""videos/med_med_c7_purple_mirror.mov""]","f","response","false"
"","","","","","html-keyboard-response","141","785044","0.0-5.0-0.2","null","<div style=""font-size:60px;"">+</div>","null","fixation",""
"","","","","","video-keyboard-response","142","786575","0.0-5.0-1.2","1530","[""videos/med_low_c12_purple_mirror.mov""]","j","response","false"
"","","","","","html-keyboard-response","143","787076","0.0-5.0-0.3","null","<div style=""font-size:60px;"">+</div>","null","fixation",""
"","","","","","video-keyboard-response","144","788285","0.0-5.0-1.3","1207","[""videos/slow_med_c1_purple_mirror.mov""]","f","response","false"
"","","","","","html-keyboard-response","145","789287","0.0-5.0-0.4","null","<div style=""font-size:60px;"">+</div>","null","fixation",""
"","","","","","video-keyboard-response","146","790617","0.0-5.0-1.4","1329","[""videos/fast_med_c17_pink.mov""]","f","response","false"
"","","","","","html-keyboard-response","147","791370","0.0-5.0-0.5","null","<div style=""font-size:60px;"">+</div>","null","fixation",""
"","","","","","video-keyboard-response","148","792479","0.0-5.0-1.5","1108","[""videos/med_high_c7_pink.mov""]","f","response","false"
"","","","","","html-keyboard-response","149","792980","0.0-5.0-0.6","null","<div style=""font-size:60px;"">+</div>","null","fixation",""
"","","","","","video-keyboard-response","150","794100","0.0-5.0-1.6","1119","[""videos/fast_high_c15_pink.mov""]","j","response","false"
"","","","","","html-keyboard-response","151","794601","0.0-5.0-0.7","null","<div style=""font-size:60px;"">+</div>","null","fixation",""
"","","","","","video-keyboard-response","152","795901","0.0-5.0-1.7","1299","[""videos/slow_high_c2_teal_mirror.mov""]","f","response","false"
"","","","","","html-keyboard-response","153","796903","0.0-5.0-0.8","null","<div style=""font-size:60px;"">+</div>","null","fixation",""
"","","","","","video-keyboard-response","154","798141","0.0-5.0-1.8","1237","[""videos/med_med_c1_tan_mirror.mov""]","f","response","false"
"","","","","","html-keyboard-response","155","798642","0.0-5.0-0.9","null","<div style=""font-size:60px;"">+</div>","null","fixation",""
"","","","","","video-keyboard-response","156","799882","0.0-5.0-1.9","1238","[""videos/slow_med_c10_teal_mirror.mov""]","j","response","false"
"","","","","","html-keyboard-response","157","800634","0.0-5.0-0.10","null","<div style=""font-size:60px;"">+</div>","null","fixation",""
"","","","","","video-keyboard-response","158","801884","0.0-5.0-1.10","1248","[""videos/fast_high_c4_pink_mirror.mov""]","f","response","false"
"","","","","","html-keyboard-response","159","802635","0.0-5.0-0.11","null","<div style=""font-size:60px;"">+</div>","null","fixation",""
"","","","","","video-keyboard-response","160","803993","0.0-5.0-1.11","1357","[""videos/med_med_c11_purple.mov""]","j","response","false"
"","","","","","html-keyboard-response","161","804494","0.0-5.0-0.12","null","<div style=""font-size:60px;"">+</div>","null","fixation",""
"","","","","","video-keyboard-response","162","805543","0.0-5.0-1.12","1047","[""videos/slow_med_c10_purple.mov""]","j","response","false"
"","","","","","html-keyboard-response","163","806044","0.0-5.0-0.13","null","<div style=""font-size:60px;"">+</div>","null","fixation",""
"","","","","","video-keyboard-response","164","807501","0.0-5.0-1.13","1456","[""videos/med_high_c7_tan_mirror.mov""]","j","response","false"
"","","","","","html-keyboard-response","165","808002","0.0-5.0-0.14","null","<div style=""font-size:60px;"">+</div>","null","fixation",""
"","","","","","video-keyboard-response","166","809616","0.0-5.0-1.14","1613","[""videos/fast_low_c17_pink_mirror.mov""]","j","response","false"
"","","","","","html-keyboard-response","167","811330","0.0-5.0-2.14-0.14","1713","<p>You can take a quick break now if you need it.</p>
      <p>Press the spacebar to continue.</p>"," ","",""
"","","","","","html-keyboard-response","168","812332","0.0-5.0-0.15","null","<div style=""font-size:60px;"">+</div>","null","fixation",""
"","","","","","video-keyboard-response","169","813281","0.0-5.0-1.15","948","[""videos/fast_med_c13_purple_mirror.mov""]","f","response","false"
"","","","","","html-keyboard-response","170","814033","0.0-5.0-0.16","null","<div style=""font-size:60px;"">+</div>","null","fixation",""
"","","","","","video-keyboard-response","171","815621","0.0-5.0-1.16","1587","[""videos/slow_low_c1_purple_mirror.mov""]","f","response","false"
"","","","","","html-keyboard-response","172","816374","0.0-5.0-0.17","null","<div style=""font-size:60px;"">+</div>","null","fixation",""
"","","","","","video-keyboard-response","173","817530","0.0-5.0-1.17","1155","[""videos/med_high_c5_pink.mov""]","f","response","false"
"","","","","","html-keyboard-response","174","818282","0.0-5.0-0.18","null","<div style=""font-size:60px;"">+</div>","null","fixation",""
"","","","","","video-keyboard-response","175","819362","0.0-5.0-1.18","1079","[""videos/med_med_c4_pink_mirror.mov""]","j","response","false"
"","","","","","html-keyboard-response","176","819864","0.0-5.0-0.19","null","<div style=""font-size:60px;"">+</div>","null","fixation",""
"","","","","","video-keyboard-response","177","821286","0.0-5.0-1.19","1421","[""videos/slow_low_c2_teal_mirror.mov""]","f","response","false"
"","","","","","html-keyboard-response","178","821788","0.0-5.0-0.20","null","<div style=""font-size:60px;"">+</div>","null","fixation",""
"","","","","","video-keyboard-response","179","822825","0.0-5.0-1.20","1035","[""videos/slow_low_c5_tan_mirror.mov""]","j","response","false"
"","","","","","html-keyboard-response","180","823325","0.0-5.0-0.21","null","<div style=""font-size:60px;"">+</div>","null","fixation",""
"","","","","","video-keyboard-response","181","824461","0.0-5.0-1.21","1134","[""videos/fast_med_c6_teal.mov""]","f","response","false"
"","","","","","html-keyboard-response","182","825463","0.0-5.0-0.22","null","<div style=""font-size:60px;"">+</div>","null","fixation",""
"","","","","","video-keyboard-response","183","827176","0.0-5.0-1.22","1712","[""videos/med_low_c8_purple.mov""]","j","response","false"
"","","","","","html-keyboard-response","184","827678","0.0-5.0-0.23","null","<div style=""font-size:60px;"">+</div>","null","fixation",""
"","","","","","video-keyboard-response","185","829171","0.0-5.0-1.23","1492","[""videos/fast_low_c16_tan.mov""]","f","response","false"
"","","","","","html-keyboard-response","186","830173","0.0-5.0-0.24","null","<div style=""font-size:60px;"">+</div>","null","fixation",""
"","","","","","video-keyboard-response","187","831627","0.0-5.0-1.24","1452","[""videos/med_high_c5_tan_mirror.mov""]","f","response","false"
"","","","","","html-keyboard-response","188","832379","0.0-5.0-0.25","null","<div style=""font-size:60px;"">+</div>","null","fixation",""
"","","","","","video-keyboard-response","189","833923","0.0-5.0-1.25","1543","[""videos/fast_low_c17_teal.mov""]","f","response","false"
"","","","","","html-keyboard-response","190","834925","0.0-5.0-0.26","null","<div style=""font-size:60px;"">+</div>","null","fixation",""
"","","","","","video-keyboard-response","191","836066","0.0-5.0-1.26","1139","[""videos/fast_low_c5_purple_mirror.mov""]","f","response","false"
"","","","","","html-keyboard-response","192","836819","0.0-5.0-0.27","null","<div style=""font-size:60px;"">+</div>","null","fixation",""
"","","","","","video-keyboard-response","193","842596","0.0-5.0-1.27","5776","[""videos/fast_low_c5_teal.mov""]","f","response","false"
"","","","","","html-keyboard-response","194","843098","0.0-5.0-0.28","null","<div style=""font-size:60px;"">+</div>","null","fixation",""
"","","","","","video-keyboard-response","195","844520","0.0-5.0-1.28","1421","[""videos/med_med_c6_teal.mov""]","f","response","false"
"","","","","","html-keyboard-response","196","845022","0.0-5.0-0.29","null","<div style=""font-size:60px;"">+</div>","null","fixation",""
"","","","","","video-keyboard-response","197","846147","0.0-5.0-1.29","1123","[""videos/med_low_c2_purple_mirror.mov""]","f","response","false"
"","","","","","html-keyboard-response","198","846898","0.0-5.0-0.30","null","<div style=""font-size:60px;"">+</div>","null","fixation",""
"","","","","","video-keyboard-response","199","848274","0.0-5.0-1.30","1375","[""videos/fast_low_c16_pink.mov""]","f","response","false"
"","","","","","html-keyboard-response","200","849277","0.0-5.0-0.31","null","<div style=""font-size:60px;"">+</div>","null","fixation",""
"","","","","","video-keyboard-response","201","850556","0.0-5.0-1.31","1278","[""videos/med_high_c10_purple_mirror.mov""]","j","response","false"
"","","","","","html-keyboard-response","202","851557","0.0-5.0-0.32","null","<div style=""font-size:60px;"">+</div>","null","fixation",""
"","","","","","video-keyboard-response","203","852577","0.0-5.0-1.32","1018","[""videos/med_high_c10_teal.mov""]","f","response","false"
"","","","","","html-keyboard-response","204","853079","0.0-5.0-0.33","null","<div style=""font-size:60px;"">+</div>","null","fixation",""
"","","","","","video-keyboard-response","205","854392","0.0-5.0-1.33","1312","[""videos/med_med_c9_purple_mirror.mov""]","j","response","false"
"","","","","","html-keyboard-response","206","855144","0.0-5.0-0.34","null","<div style=""font-size:60px;"">+</div>","null","fixation",""
"","","","","","video-keyboard-response","207","856442","0.0-5.0-1.34","1297","[""videos/fast_med_c16_purple.mov""]","f","response","false"
"","","","","","html-keyboard-response","208","860660","0.0-5.0-2.34-0.34","4218","<p>You can take a quick break now if you need it.</p>
      <p>Press the spacebar to continue.</p>"," ","",""
"","","","","","html-keyboard-response","209","861662","0.0-5.0-0.35","null","<div style=""font-size:60px;"">+</div>","null","fixation",""
"","","","","","video-keyboard-response","210","868386","0.0-5.0-1.35","6722","[""videos/slow_med_c3_purple.mov""]","f","response","false"
"","","","","","html-keyboard-response","211","868887","0.0-5.0-0.36","null","<div style=""font-size:60px;"">+</div>","null","fixation",""
"","","","","","video-keyboard-response","212","869911","0.0-5.0-1.36","1022","[""videos/med_med_c11_teal_mirror.mov""]","j","response","false"
"","","","","","html-keyboard-response","213","870663","0.0-5.0-0.37","null","<div style=""font-size:60px;"">+</div>","null","fixation",""
"","","","","","video-keyboard-response","214","871726","0.0-5.0-1.37","1062","[""videos/fast_low_c16_purple_mirror.mov""]","f","response","false"
"","","","","","html-keyboard-response","215","872728","0.0-5.0-0.38","null","<div style=""font-size:60px;"">+</div>","null","fixation",""
"","","","","","video-keyboard-response","216","874026","0.0-5.0-1.38","1296","[""videos/slow_high_c13_tan_mirror.mov""]","j","response","false"
"","","","","","html-keyboard-response","217","874778","0.0-5.0-0.39","null","<div style=""font-size:60px;"">+</div>","null","fixation",""
"","","","","","video-keyboard-response","218","875840","0.0-5.0-1.39","1061","[""videos/slow_med_c2_teal.mov""]","f","response","false"
"","","","","","html-keyboard-response","219","876842","0.0-5.0-0.40","null","<div style=""font-size:60px;"">+</div>","null","fixation",""
"","","","","","video-keyboard-response","220","879012","0.0-5.0-1.40","2168","[""videos/fast_low_c15_tan_mirror.mov""]","j","response","false"
"","","","","","html-keyboard-response","221","879764","0.0-5.0-0.41","null","<div style=""font-size:60px;"">+</div>","null","fixation",""
"","","","","","video-keyboard-response","222","880773","0.0-5.0-1.41","1007","[""videos/fast_high_c8_tan_mirror.mov""]","f","response","false"
"","","","","","html-keyboard-response","223","881774","0.0-5.0-0.42","null","<div style=""font-size:60px;"">+</div>","null","fixation",""
"","","","","","video-keyboard-response","224","882870","0.0-5.0-1.42","1095","[""videos/fast_med_c14_tan_mirror.mov""]","f","response","false"
"","","","","","html-keyboard-response","225","883622","0.0-5.0-0.43","null","<div style=""font-size:60px;"">+</div>","null","fixation",""
"","","","","","video-keyboard-response","226","884668","0.0-5.0-1.43","1044","[""videos/slow_low_c3_pink_mirror.mov""]","j","response","false"
"","","","","","html-keyboard-response","227","885420","0.0-5.0-0.44","null","<div style=""font-size:60px;"">+</div>","null","fixation",""
"","","","","","video-keyboard-response","228","886650","0.0-5.0-1.44","1228","[""videos/slow_low_c2_purple_mirror.mov""]","j","response","false"
"","","","","","html-keyboard-response","229","887152","0.0-5.0-0.45","null","<div style=""font-size:60px;"">+</div>","null","fixation",""
"","","","","","video-keyboard-response","230","888325","0.0-5.0-1.45","1172","[""videos/fast_low_c12_tan.mov""]","f","response","false"
"","","","","","html-keyboard-response","231","889327","0.0-5.0-0.46","null","<div style=""font-size:60px;"">+</div>","null","fixation",""
"","","","","","video-keyboard-response","232","890337","0.0-5.0-1.46","1009","[""videos/fast_med_c11_purple_mirror.mov""]","f","response","false"
"","","","","","html-keyboard-response","233","890838","0.0-5.0-0.47","null","<div style=""font-size:60px;"">+</div>","null","fixation",""
"","","","","","video-keyboard-response","234","892207","0.0-5.0-1.47","1368","[""videos/med_med_c1_pink.mov""]","f","response","false"
"","","","","","html-keyboard-response","235","892709","0.0-5.0-0.48","null","<div style=""font-size:60px;"">+</div>","null","fixation",""
"","","","","","video-keyboard-response","236","893860","0.0-5.0-1.48","1150","[""videos/med_low_c7_teal_mirror.mov""]","j","response","false"
"","","","","","html-keyboard-response","237","894613","0.0-5.0-0.49","null","<div style=""font-size:60px;"">+</div>","null","fixation",""
"","","","","","video-keyboard-response","238","895821","0.0-5.0-1.49","1207","[""videos/med_med_c8_teal.mov""]","f","response","false"
"","","","","","html-keyboard-response","239","896823","0.0-5.0-0.50","null","<div style=""font-size:60px;"">+</div>","null","fixation",""
"","","","","","video-keyboard-response","240","897983","0.0-5.0-1.50","1159","[""videos/med_high_c8_pink_mirror.mov""]","f","response","false"
"","","","","","html-keyboard-response","241","898735","0.0-5.0-0.51","null","<div style=""font-size:60px;"">+</div>","null","fixation",""
"","","","","","video-keyboard-response","242","899893","0.0-5.0-1.51","1156","[""videos/slow_high_c3_tan_mirror.mov""]","j","response","false"
"","","","","","html-keyboard-response","243","900394","0.0-5.0-0.52","null","<div style=""font-size:60px;"">+</div>","null","fixation",""
"","","","","","video-keyboard-response","244","901552","0.0-5.0-1.52","1156","[""videos/slow_low_c2_tan.mov""]","j","response","false"
"","","","","","html-keyboard-response","245","902554","0.0-5.0-0.53","null","<div style=""font-size:60px;"">+</div>","null","fixation",""
"","","","","","video-keyboard-response","246","903677","0.0-5.0-1.53","1122","[""videos/fast_high_c11_pink.mov""]","f","response","false"
"","","","","","html-keyboard-response","247","904679","0.0-5.0-0.54","null","<div style=""font-size:60px;"">+</div>","null","fixation",""
"","","","","","video-keyboard-response","248","905891","0.0-5.0-1.54","1211","[""videos/slow_low_c4_purple.mov""]","j","response","false"
"","","","","","html-keyboard-response","249","909578","0.0-5.0-2.54-0.54","3686","<p>You can take a quick break now if you need it.</p>
      <p>Press the spacebar to continue.</p>"," ","",""
"","","","","","html-keyboard-response","250","910080","0.0-5.0-0.55","null","<div style=""font-size:60px;"">+</div>","null","fixation",""
"","","","","","video-keyboard-response","251","911410","0.0-5.0-1.55","1329","[""videos/slow_high_c1_pink.mov""]","f","response","false"
"","","","","","html-keyboard-response","252","912412","0.0-5.0-0.56","null","<div style=""font-size:60px;"">+</div>","null","fixation",""
"","","","","","video-keyboard-response","253","913806","0.0-5.0-1.56","1392","[""videos/med_med_c7_pink.mov""]","f","response","false"
"","","","","","html-keyboard-response","254","914308","0.0-5.0-0.57","null","<div style=""font-size:60px;"">+</div>","null","fixation",""
"","","","","","video-keyboard-response","255","915763","0.0-5.0-1.57","1454","[""videos/med_high_c13_tan.mov""]","j","response","false"
"","","","","","html-keyboard-response","256","916264","0.0-5.0-0.58","null","<div style=""font-size:60px;"">+</div>","null","fixation",""
"","","","","","video-keyboard-response","257","917617","0.0-5.0-1.58","1351","[""videos/slow_high_c2_tan_mirror.mov""]","j","response","false"
"","","","","","html-keyboard-response","258","918118","0.0-5.0-0.59","null","<div style=""font-size:60px;"">+</div>","null","fixation",""
"","","","","","video-keyboard-response","259","919242","0.0-5.0-1.59","1122","[""videos/med_low_c9_pink_mirror.mov""]","j","response","false"
"","","","","","html-keyboard-response","260","920244","0.0-5.0-0.60","null","<div style=""font-size:60px;"">+</div>","null","fixation",""
"","","","","","video-keyboard-response","261","921150","0.0-5.0-1.60","904","[""videos/slow_high_c2_pink.mov""]","f","response","false"
"","","","","","html-keyboard-response","262","922151","0.0-5.0-0.61","null","<div style=""font-size:60px;"">+</div>","null","fixation",""
"","","","","","video-keyboard-response","263","923289","0.0-5.0-1.61","1136","[""videos/slow_high_c6_tan.mov""]","j","response","false"
"","","","","","html-keyboard-response","264","924041","0.0-5.0-0.62","null","<div style=""font-size:60px;"">+</div>","null","fixation",""
"","","","","","video-keyboard-response","265","925188","0.0-5.0-1.62","1147","[""videos/slow_high_c13_pink.mov""]","j","response","false"
"","","","","","html-keyboard-response","266","925940","0.0-5.0-0.63","null","<div style=""font-size:60px;"">+</div>","null","fixation",""
"","","","","","video-keyboard-response","267","927358","0.0-5.0-1.63","1416","[""videos/fast_low_c16_teal_mirror.mov""]","f","response","false"
"","","","","","html-keyboard-response","268","927860","0.0-5.0-0.64","null","<div style=""font-size:60px;"">+</div>","null","fixation",""
"","","","","","video-keyboard-response","269","929098","0.0-5.0-1.64","1237","[""videos/slow_high_c4_tan_mirror.mov""]","j","response","false"
"","","","","","html-keyboard-response","270","930101","0.0-5.0-0.65","null","<div style=""font-size:60px;"">+</div>","null","fixation",""
"","","","","","video-keyboard-response","271","931221","0.0-5.0-1.65","1118","[""videos/med_low_c5_tan.mov""]","f","response","false"
"","","","","","html-keyboard-response","272","932222","0.0-5.0-0.66","null","<div style=""font-size:60px;"">+</div>","null","fixation",""
"","","","","","video-keyboard-response","273","933524","0.0-5.0-1.66","1300","[""videos/fast_high_c17_purple.mov""]","j","response","false"
"","","","","","html-keyboard-response","274","934025","0.0-5.0-0.67","null","<div style=""font-size:60px;"">+</div>","null","fixation",""
"","","","","","video-keyboard-response","275","935155","0.0-5.0-1.67","1129","[""videos/slow_med_c1_tan.mov""]","f","response","false"
"","","","","","html-keyboard-response","276","935907","0.0-5.0-0.68","null","<div style=""font-size:60px;"">+</div>","null","fixation",""
"","","","","","video-keyboard-response","277","936975","0.0-5.0-1.68","1066","[""videos/slow_low_c7_teal_mirror.mov""]","j","response","false"
"","","","","","html-keyboard-response","278","937476","0.0-5.0-0.69","null","<div style=""font-size:60px;"">+</div>","null","fixation",""
"","","","","","video-keyboard-response","279","938277","0.0-5.0-1.69","799","[""videos/slow_high_c4_pink.mov""]","f","response","false"
"","","","","","html-keyboard-response","280","938778","0.0-5.0-0.70","null","<div style=""font-size:60px;"">+</div>","null","fixation",""
"","","","","","video-keyboard-response","281","940285","0.0-5.0-1.70","1506","[""videos/fast_low_c17_tan.mov""]","f","response","false"
"","","","","","html-keyboard-response","282","940785","0.0-5.0-0.71","null","<div style=""font-size:60px;"">+</div>","null","fixation",""
"","","","","","video-keyboard-response","283","941946","0.0-5.0-1.71","1159","[""videos/slow_med_c5_pink_mirror.mov""]","j","response","false"
"","","","","","html-keyboard-response","284","942699","0.0-5.0-0.72","null","<div style=""font-size:60px;"">+</div>","null","fixation",""
"","","","","","video-keyboard-response","285","947907","0.0-5.0-1.72","5207","[""videos/fast_med_c6_purple_mirror.mov""]","j","response","false"
"","","","","","html-keyboard-response","286","948408","0.0-5.0-0.73","null","<div style=""font-size:60px;"">+</div>","null","fixation",""
"","","","","","video-keyboard-response","287","953040","0.0-5.0-1.73","4630","[""videos/fast_high_c12_teal.mov""]","j","response","false"
"","","","","","html-keyboard-response","288","953791","0.0-5.0-0.74","null","<div style=""font-size:60px;"">+</div>","null","fixation",""
"","","","","","video-keyboard-response","289","955002","0.0-5.0-1.74","1210","[""videos/fast_med_c15_teal.mov""]","f","response","false"
"","","","","","html-keyboard-response","290","959133","0.0-5.0-2.74-0.74","4131","<p>You can take a quick break now if you need it.</p>
      <p>Press the spacebar to continue.</p>"," ","",""
"","","","","","html-keyboard-response","291","960135","0.0-5.0-0.75","null","<div style=""font-size:60px;"">+</div>","null","fixation",""
"","","","","","video-keyboard-response","292","961251","0.0-5.0-1.75","1115","[""videos/med_low_c12_teal.mov""]","j","response","false"
"","","","","","html-keyboard-response","293","962254","0.0-5.0-0.76","null","<div style=""font-size:60px;"">+</div>","null","fixation",""
"","","","","","video-keyboard-response","294","963589","0.0-5.0-1.76","1333","[""videos/med_med_c4_tan.mov""]","f","response","false"
"","","","","","html-keyboard-response","295","964591","0.0-5.0-0.77","null","<div style=""font-size:60px;"">+</div>","null","fixation",""
"","","","","","video-keyboard-response","296","966631","0.0-5.0-1.77","2039","[""videos/med_low_c10_tan.mov""]","j","response","false"
"","","","","","html-keyboard-response","297","967383","0.0-5.0-0.78","null","<div style=""font-size:60px;"">+</div>","null","fixation",""
"","","","","","video-keyboard-response","298","968807","0.0-5.0-1.78","1422","[""videos/fast_high_c12_tan_mirror.mov""]","f","response","false"
"","","","","","html-keyboard-response","299","969559","0.0-5.0-0.79","null","<div style=""font-size:60px;"">+</div>","null","fixation",""
"","","","","","video-keyboard-response","300","971048","0.0-5.0-1.79","1488","[""videos/slow_med_c2_pink_mirror.mov""]","f","response","false"
"","","","","","html-keyboard-response","301","971800","0.0-5.0-0.80","null","<div style=""font-size:60px;"">+</div>","null","fixation",""
"","","","","","video-keyboard-response","302","973194","0.0-5.0-1.80","1393","[""videos/med_med_c6_pink_mirror.mov""]","j","response","false"
"","","","","","html-keyboard-response","303","973946","0.0-5.0-0.81","null","<div style=""font-size:60px;"">+</div>","null","fixation",""
"","","","","","video-keyboard-response","304","975679","0.0-5.0-1.81","1731","[""videos/med_low_c8_teal_mirror.mov""]","j","response","false"
"","","","","","html-keyboard-response","305","976431","0.0-5.0-0.82","null","<div style=""font-size:60px;"">+</div>","null","fixation",""
"","","","","","video-keyboard-response","306","979201","0.0-5.0-1.82","2769","[""videos/fast_low_c14_pink_mirror.mov""]","f","response","false"
"","","","","","html-keyboard-response","307","980203","0.0-5.0-0.83","null","<div style=""font-size:60px;"">+</div>","null","fixation",""
"","","","","","video-keyboard-response","308","981817","0.0-5.0-1.83","1613","[""videos/med_med_c9_pink.mov""]","j","response","false"
"","","","","","html-keyboard-response","309","982318","0.0-5.0-0.84","null","<div style=""font-size:60px;"">+</div>","null","fixation",""
"","","","","","video-keyboard-response","310","983853","0.0-5.0-1.84","1533","[""videos/fast_high_c4_purple.mov""]","f","response","false"
"","","","","","html-keyboard-response","311","984354","0.0-5.0-0.85","null","<div style=""font-size:60px;"">+</div>","null","fixation",""
"","","","","","video-keyboard-response","312","987767","0.0-5.0-1.85","3412","[""videos/med_high_c1_pink_mirror.mov""]","f","response","false"
"","","","","","html-keyboard-response","313","988269","0.0-5.0-0.86","null","<div style=""font-size:60px;"">+</div>","null","fixation",""
"","","","","","video-keyboard-response","314","996650","0.0-5.0-1.86","8379","[""videos/fast_high_c8_teal.mov""]","f","response","false"
"","","","","","html-keyboard-response","315","997151","0.0-5.0-0.87","null","<div style=""font-size:60px;"">+</div>","null","fixation",""
"","","","","","video-keyboard-response","316","998592","0.0-5.0-1.87","1439","[""videos/fast_low_c12_teal_mirror.mov""]","f","response","false"
"","","","","","html-keyboard-response","317","999093","0.0-5.0-0.88","null","<div style=""font-size:60px;"">+</div>","null","fixation",""
"","","","","","video-keyboard-response","318","1000033","0.0-5.0-1.88","939","[""videos/slow_low_c12_teal_mirror.mov""]","j","response","false"
"","","","","","html-keyboard-response","319","1001034","0.0-5.0-0.89","null","<div style=""font-size:60px;"">+</div>","null","fixation",""
"","","","","","video-keyboard-response","320","1002872","0.0-5.0-1.89","1835","[""videos/med_high_c6_purple.mov""]","f","response","false"
"","","","","","html-keyboard-response","321","1003373","0.0-5.0-0.90","null","<div style=""font-size:60px;"">+</div>","null","fixation",""
"","","","","","video-keyboard-response","322","1005272","0.0-5.0-1.90","1897","[""videos/med_low_c2_pink.mov""]","j","response","false"
"","","","","","html-keyboard-response","323","1006024","0.0-5.0-0.91","null","<div style=""font-size:60px;"">+</div>","null","fixation",""
"","","","","","video-keyboard-response","324","1007255","0.0-5.0-1.91","1230","[""videos/med_low_c16_purple_mirror.mov""]","j","response","false"
"","","","","","html-keyboard-response","325","1008257","0.0-5.0-0.92","null","<div style=""font-size:60px;"">+</div>","null","fixation",""
"","","","","","video-keyboard-response","326","1009841","0.0-5.0-1.92","1582","[""videos/fast_low_c15_teal.mov""]","f","response","false"
"","","","","","html-keyboard-response","327","1010341","0.0-5.0-0.93","null","<div style=""font-size:60px;"">+</div>","null","fixation",""
"","","","","","video-keyboard-response","328","1011401","0.0-5.0-1.93","1058","[""videos/fast_med_c15_purple_mirror.mov""]","f","response","false"
"","","","","","html-keyboard-response","329","1012153","0.0-5.0-0.94","null","<div style=""font-size:60px;"">+</div>","null","fixation",""
"","","","","","video-keyboard-response","330","1013225","0.0-5.0-1.94","1070","[""videos/slow_med_c7_pink.mov""]","j","response","false"
"","","","","","html-keyboard-response","331","1016920","0.0-5.0-2.94-0.94","3695","<p>You can take a quick break now if you need it.</p>
      <p>Press the spacebar to continue.</p>"," ","",""
"","","","","","html-keyboard-response","332","1017421","0.0-5.0-0.95","null","<div style=""font-size:60px;"">+</div>","null","fixation",""
"","","","","","video-keyboard-response","333","1018458","0.0-5.0-1.95","1035","[""videos/fast_med_c14_purple.mov""]","f","response","false"
"","","","","","html-keyboard-response","334","1018959","0.0-5.0-0.96","null","<div style=""font-size:60px;"">+</div>","null","fixation",""
"","","","","","video-keyboard-response","335","1020514","0.0-5.0-1.96","1554","[""videos/med_high_c8_purple.mov""]","j","response","false"
"","","","","","html-keyboard-response","336","1021516","0.0-5.0-0.97","null","<div style=""font-size:60px;"">+</div>","null","fixation",""
"","","","","","video-keyboard-response","337","1023856","0.0-5.0-1.97","2338","[""videos/fast_high_c10_purple_mirror.mov""]","f","response","false"
"","","","","","html-keyboard-response","338","1024858","0.0-5.0-0.98","null","<div style=""font-size:60px;"">+</div>","null","fixation",""
"","","","","","video-keyboard-response","339","1026503","0.0-5.0-1.98","1643","[""videos/fast_low_c14_purple.mov""]","f","response","false"
"","","","","","html-keyboard-response","340","1027254","0.0-5.0-0.99","null","<div style=""font-size:60px;"">+</div>","null","fixation",""
"","","","","","video-keyboard-response","341","1028384","0.0-5.0-1.99","1128","[""videos/fast_med_c11_teal.mov""]","f","response","false"
"","","","","","html-keyboard-response","342","1029386","0.0-5.0-0.100","null","<div style=""font-size:60px;"">+</div>","null","fixation",""
"","","","","","video-keyboard-response","343","1030531","0.0-5.0-1.100","1143","[""videos/slow_med_c7_purple_mirror.mov""]","j","response","false"
"","","","","","html-keyboard-response","344","1031532","0.0-5.0-0.101","null","<div style=""font-size:60px;"">+</div>","null","fixation",""
"","","","","","video-keyboard-response","345","1032710","0.0-5.0-1.101","1176","[""videos/slow_high_c1_purple_mirror.mov""]","j","response","false"
"","","","","","html-keyboard-response","346","1033713","0.0-5.0-0.102","null","<div style=""font-size:60px;"">+</div>","null","fixation",""
"","","","","","video-keyboard-response","347","1034737","0.0-5.0-1.102","1023","[""videos/slow_low_c4_pink_mirror.mov""]","f","response","false"
"","","","","","html-keyboard-response","348","1035488","0.0-5.0-0.103","null","<div style=""font-size:60px;"">+</div>","null","fixation",""
"","","","","","video-keyboard-response","349","1053196","0.0-5.0-1.103","17706","[""videos/slow_high_c1_teal.mov""]","j","response","false"
"","","","","","html-keyboard-response","350","1054198","0.0-5.0-0.104","null","<div style=""font-size:60px;"">+</div>","null","fixation",""
"","","","","","video-keyboard-response","351","1055323","0.0-5.0-1.104","1124","[""videos/med_low_c7_tan.mov""]","f","response","false"
"","","","","","html-keyboard-response","352","1056325","0.0-5.0-0.105","null","<div style=""font-size:60px;"">+</div>","null","fixation",""
"","","","","","video-keyboard-response","353","1057667","0.0-5.0-1.105","1341","[""videos/slow_high_c6_pink_mirror.mov""]","j","response","false"
"","","","","","html-keyboard-response","354","1058169","0.0-5.0-0.106","null","<div style=""font-size:60px;"">+</div>","null","fixation",""
"","","","","","video-keyboard-response","355","1059330","0.0-5.0-1.106","1160","[""videos/med_high_c3_purple.mov""]","f","response","false"
"","","","","","html-keyboard-response","356","1059831","0.0-5.0-0.107","null","<div style=""font-size:60px;"">+</div>","null","fixation",""
"","","","","","video-keyboard-response","357","1060974","0.0-5.0-1.107","1142","[""videos/slow_high_c3_teal.mov""]","f","response","false"
"","","","","","html-keyboard-response","358","1061977","0.0-5.0-0.108","null","<div style=""font-size:60px;"">+</div>","null","fixation",""
"","","","","","video-keyboard-response","359","1064864","0.0-5.0-1.108","2886","[""videos/slow_med_c3_teal_mirror.mov""]","f","response","false"
"","","","","","html-keyboard-response","360","1065365","0.0-5.0-0.109","null","<div style=""font-size:60px;"">+</div>","null","fixation",""
"","","","","","video-keyboard-response","361","1067867","0.0-5.0-1.109","2500","[""videos/slow_med_c4_pink.mov""]","j","response","false"
"","","","","","html-keyboard-response","362","1068869","0.0-5.0-0.110","null","<div style=""font-size:60px;"">+</div>","null","fixation",""
"","","","","","video-keyboard-response","363","1070263","0.0-5.0-1.110","1393","[""videos/med_low_c10_teal_mirror.mov""]","j","response","false"
"","","","","","html-keyboard-response","364","1071016","0.0-5.0-0.111","null","<div style=""font-size:60px;"">+</div>","null","fixation",""
"","","","","","video-keyboard-response","365","1072490","0.0-5.0-1.111","1473","[""videos/fast_high_c13_teal.mov""]","j","response","false"
"","","","","","html-keyboard-response","366","1073242","0.0-5.0-0.112","null","<div style=""font-size:60px;"">+</div>","null","fixation",""
"","","","","","video-keyboard-response","367","1074399","0.0-5.0-1.112","1156","[""videos/slow_low_c3_purple.mov""]","f","response","false"
"","","","","","html-keyboard-response","368","1074900","0.0-5.0-0.113","null","<div style=""font-size:60px;"">+</div>","null","fixation",""
"","","","","","video-keyboard-response","369","1076531","0.0-5.0-1.113","1629","[""videos/slow_med_c5_tan.mov""]","j","response","false"
"","","","","","html-keyboard-response","370","1077533","0.0-5.0-0.114","null","<div style=""font-size:60px;"">+</div>","null","fixation",""
"","","","","","video-keyboard-response","371","1078698","0.0-5.0-1.114","1164","[""videos/fast_med_c15_tan.mov""]","f","response","false"
"","","","","","html-keyboard-response","372","1081634","0.0-5.0-2.114-0.114","2936","<p>You can take a quick break now if you need it.</p>
      <p>Press the spacebar to continue.</p>"," ","",""
"","","","","","html-keyboard-response","373","1082386","0.0-5.0-0.115","null","<div style=""font-size:60px;"">+</div>","null","fixation",""
"","","","","","video-keyboard-response","374","1083825","0.0-5.0-1.115","1438","[""videos/slow_low_c5_purple.mov""]","j","response","false"
"","","","","","html-keyboard-response","375","1084577","0.0-5.0-0.116","null","<div style=""font-size:60px;"">+</div>","null","fixation",""
"","","","","","video-keyboard-response","376","1085844","0.0-5.0-1.116","1265","[""videos/slow_high_c2_purple.mov""]","f","response","false"
"","","","","","html-keyboard-response","377","1086597","0.0-5.0-0.117","null","<div style=""font-size:60px;"">+</div>","null","fixation",""
"","","","","","video-keyboard-response","378","1098620","0.0-5.0-1.117","12021","[""videos/med_high_c13_teal_mirror.mov""]","j","response","false"
"","","","","","html-keyboard-response","379","1099121","0.0-5.0-0.118","null","<div style=""font-size:60px;"">+</div>","null","fixation",""
"","","","","","video-keyboard-response","380","1102561","0.0-5.0-1.118","3438","[""videos/slow_low_c1_tan.mov""]","f","response","false"
"","","","","","html-keyboard-response","381","1103063","0.0-5.0-0.119","null","<div style=""font-size:60px;"">+</div>","null","fixation",""
"","","","","","video-keyboard-response","382","1104997","0.0-5.0-1.119","1933","[""videos/fast_high_c15_tan_mirror.mov""]","j","response","false"
"","","","","","html-keyboard-response","383","1105998","0.0-5.0-0.120","null","<div style=""font-size:60px;"">+</div>","null","fixation",""
"","","","","","video-keyboard-response","384","1107156","0.0-5.0-1.120","1156","[""videos/med_high_c6_tan_mirror.mov""]","f","response","false"
"","","","","","html-keyboard-response","385","1107657","0.0-5.0-0.121","null","<div style=""font-size:60px;"">+</div>","null","fixation",""
"","","","","","video-keyboard-response","386","1109241","0.0-5.0-1.121","1582","[""videos/med_high_c3_teal_mirror.mov""]","f","response","false"
"","","","","","html-keyboard-response","387","1109742","0.0-5.0-0.122","null","<div style=""font-size:60px;"">+</div>","null","fixation",""
"","","","","","video-keyboard-response","388","1111252","0.0-5.0-1.122","1508","[""videos/med_med_c14_tan.mov""]","j","response","false"
"","","","","","html-keyboard-response","389","1111753","0.0-5.0-0.123","null","<div style=""font-size:60px;"">+</div>","null","fixation",""
"","","","","","video-keyboard-response","390","1112973","0.0-5.0-1.123","1218","[""videos/slow_med_c3_tan.mov""]","f","response","false"
"","","","","","html-keyboard-response","391","1113726","0.0-5.0-0.124","null","<div style=""font-size:60px;"">+</div>","null","fixation",""
"","","","","","video-keyboard-response","392","1114940","0.0-5.0-1.124","1213","[""videos/med_low_c16_teal.mov""]","j","response","false"
"","","","","","html-keyboard-response","393","1115441","0.0-5.0-0.125","null","<div style=""font-size:60px;"">+</div>","null","fixation",""
"","","","","","video-keyboard-response","394","1116926","0.0-5.0-1.125","1483","[""videos/fast_med_c16_tan_mirror.mov""]","j","response","false"
"","","","","","html-keyboard-response","395","1117678","0.0-5.0-0.126","null","<div style=""font-size:60px;"">+</div>","null","fixation",""
"","","","","","video-keyboard-response","396","1118594","0.0-5.0-1.126","914","[""videos/fast_high_c10_tan.mov""]","f","response","false"
"","","","","","html-keyboard-response","397","1119095","0.0-5.0-0.127","null","<div style=""font-size:60px;"">+</div>","null","fixation",""
"","","","","","video-keyboard-response","398","1120235","0.0-5.0-1.127","1138","[""videos/fast_high_c17_pink_mirror.mov""]","j","response","false"
"","","","","","html-keyboard-response","399","1120985","0.0-5.0-0.128","null","<div style=""font-size:60px;"">+</div>","null","fixation",""
"","","","","","video-keyboard-response","400","1122209","0.0-5.0-1.128","1223","[""videos/fast_med_c16_teal.mov""]","f","response","false"
"","","","","","html-keyboard-response","401","1123211","0.0-5.0-0.129","null","<div style=""font-size:60px;"">+</div>","null","fixation",""
"","","","","","video-keyboard-response","402","1124703","0.0-5.0-1.129","1491","[""videos/med_low_c9_teal.mov""]","j","response","false"
"","","","","","html-keyboard-response","403","1125705","0.0-5.0-0.130","null","<div style=""font-size:60px;"">+</div>","null","fixation",""
"","","","","","video-keyboard-response","404","1126846","0.0-5.0-1.130","1139","[""videos/slow_low_c12_pink.mov""]","j","response","false"
"","","","","","html-keyboard-response","405","1127848","0.0-5.0-0.131","null","<div style=""font-size:60px;"">+</div>","null","fixation",""
"","","","","","video-keyboard-response","406","1129144","0.0-5.0-1.131","1295","[""videos/slow_med_c4_tan_mirror.mov""]","f","response","false"
"","","","","","html-keyboard-response","407","1130146","0.0-5.0-0.132","null","<div style=""font-size:60px;"">+</div>","null","fixation",""
"","","","","","video-keyboard-response","408","1131710","0.0-5.0-1.132","1563","[""videos/med_high_c1_teal.mov""]","f","response","false"
"","","","","","html-keyboard-response","409","1132713","0.0-5.0-0.133","null","<div style=""font-size:60px;"">+</div>","null","fixation",""
"","","","","","video-keyboard-response","410","1134303","0.0-5.0-1.133","1589","[""videos/slow_high_c1_tan_mirror.mov""]","f","response","false"
"","","","","","html-keyboard-response","411","1134804","0.0-5.0-0.134","null","<div style=""font-size:60px;"">+</div>","null","fixation",""
"","","","","","video-keyboard-response","412","1136980","0.0-5.0-1.134","2174","[""videos/fast_med_c17_purple_mirror.mov""]","j","response","false"
"","","","","","html-keyboard-response","413","1138264","0.0-5.0-2.134-0.134","1284","<p>You can take a quick break now if you need it.</p>
      <p>Press the spacebar to continue.</p>"," ","",""
"","","","","","html-keyboard-response","414","1139017","0.0-5.0-0.135","null","<div style=""font-size:60px;"">+</div>","null","fixation",""
"","","","","","video-keyboard-response","415","1140306","0.0-5.0-1.135","1288","[""videos/slow_med_c2_purple.mov""]","f","response","false"
"","","","","","html-keyboard-response","416","1141059","0.0-5.0-0.136","null","<div style=""font-size:60px;"">+</div>","null","fixation",""
"","","","","","video-keyboard-response","417","1142443","0.0-5.0-1.136","1382","[""videos/slow_low_c7_pink.mov""]","j","response","false"
"","","","","","html-keyboard-response","418","1142944","0.0-5.0-0.137","null","<div style=""font-size:60px;"">+</div>","null","fixation",""
"","","","","","video-keyboard-response","419","1144494","0.0-5.0-1.137","1548","[""videos/med_med_c14_pink_mirror.mov""]","j","response","false"
"","","","","","html-keyboard-response","420","1144996","0.0-5.0-0.138","null","<div style=""font-size:60px;"">+</div>","null","fixation",""
"","","","","","video-keyboard-response","421","1146627","0.0-5.0-1.138","1629","[""videos/med_med_c8_purple_mirror.mov""]","f","response","false"
"","","","","","html-keyboard-response","422","1147128","0.0-5.0-0.139","null","<div style=""font-size:60px;"">+</div>","null","fixation",""
"","","","","","video-keyboard-response","423","1148414","0.0-5.0-1.139","1285","[""videos/fast_high_c11_teal_mirror.mov""]","f","response","false"
"","","","","","html-keyboard-response","424","1149167","0.0-5.0-0.140","null","<div style=""font-size:60px;"">+</div>","null","fixation",""
"","","","","","video-keyboard-response","425","1150753","0.0-5.0-1.140","1585","[""videos/slow_low_c3_teal_mirror.mov""]","j","response","false"
"","","","","","html-keyboard-response","426","1151505","0.0-5.0-0.141","null","<div style=""font-size:60px;"">+</div>","null","fixation",""
"","","","","","video-keyboard-response","427","1152800","0.0-5.0-1.141","1294","[""videos/med_low_c5_teal_mirror.mov""]","f","response","false"
"","","","","","html-keyboard-response","428","1153802","0.0-5.0-0.142","null","<div style=""font-size:60px;"">+</div>","null","fixation",""
"","","","","","video-keyboard-response","429","1155335","0.0-5.0-1.142","1532","[""videos/fast_low_c17_purple_mirror.mov""]","f","response","false"
"","","","","","html-keyboard-response","430","1155836","0.0-5.0-0.143","null","<div style=""font-size:60px;"">+</div>","null","fixation",""
"","","","","","video-keyboard-response","431","1157045","0.0-5.0-1.143","1207","[""videos/fast_med_c13_teal.mov""]","f","response","false"
"","","","","","html-keyboard-response","432","1159004","0.0-6.0","1958","<p>You can take a quick break now if you need it.</p>
      <p>Press the spacebar to continue.</p>"," ","",""
"","","","","","html-keyboard-response","433","1159506","0.0-7.0-0.0","null","<div style=""font-size:60px;"">+</div>","null","fixation",""
"","","","","","video-keyboard-response","434","1160781","0.0-7.0-1.0","1274","[""videos/fast_med_c13_white.mov""]","f","response","false"
"","","","","","html-keyboard-response","435","1161282","0.0-7.0-0.1","null","<div style=""font-size:60px;"">+</div>","null","fixation",""
"","","","","","video-keyboard-response","436","1162754","0.0-7.0-1.1","1470","[""videos/slow_low_c7_white.mov""]","j","response","false"
"","","","","","html-keyboard-response","437","1163255","0.0-7.0-0.2","null","<div style=""font-size:60px;"">+</div>","null","fixation",""
"","","","","","video-keyboard-response","438","1164446","0.0-7.0-1.2","1189","[""videos/med_med_c7_white.mov""]","f","response","false"
"","","","","","html-keyboard-response","439","1165447","0.0-7.0-0.3","null","<div style=""font-size:60px;"">+</div>","null","fixation",""
"","","","","","video-keyboard-response","440","1167136","0.0-7.0-1.3","1688","[""videos/fast_high_c12_white.mov""]","j","response","false"
"","","","","","html-keyboard-response","441","1167639","0.0-7.0-0.4","null","<div style=""font-size:60px;"">+</div>","null","fixation",""
"","","","","","video-keyboard-response","442","1168773","0.0-7.0-1.4","1133","[""videos/med_low_c7_white.mov""]","f","response","false"
"","","","","","html-keyboard-response","443","1169775","0.0-7.0-0.5","null","<div style=""font-size:60px;"">+</div>","null","fixation",""
"","","","","","video-keyboard-response","444","1171268","0.0-7.0-1.5","1491","[""videos/med_high_c10_white.mov""]","j","response","false"
"","","","","","html-keyboard-response","445","1172269","0.0-7.0-0.6","null","<div style=""font-size:60px;"">+</div>","null","fixation",""
"","","","","","video-keyboard-response","446","1173685","0.0-7.0-1.6","1415","[""videos/slow_high_c4_white_mirror.mov""]","j","response","false"
"","","","","","html-keyboard-response","447","1174436","0.0-7.0-0.7","null","<div style=""font-size:60px;"">+</div>","null","fixation",""
"","","","","","video-keyboard-response","448","1175888","0.0-7.0-1.7","1451","[""videos/fast_high_c17_white_mirror.mov""]","j","response","false"
"","","","","","html-keyboard-response","449","1176891","0.0-7.0-0.8","null","<div style=""font-size:60px;"">+</div>","null","fixation",""
"","","","","","video-keyboard-response","450","1178168","0.0-7.0-1.8","1276","[""videos/fast_low_c12_white_mirror.mov""]","f","response","false"
"","","","","","html-keyboard-response","451","1179171","0.0-7.0-0.9","null","<div style=""font-size:60px;"">+</div>","null","fixation",""
"","","","","","video-keyboard-response","452","1180525","0.0-7.0-1.9","1353","[""videos/slow_med_c10_white.mov""]","j","response","false"
"","","","","","html-keyboard-response","453","1181026","0.0-7.0-0.10","null","<div style=""font-size:60px;"">+</div>","null","fixation",""
"","","","","","video-keyboard-response","454","1182310","0.0-7.0-1.10","1283","[""videos/med_high_c7_white_mirror.mov""]","f","response","false"
"","","","","","html-keyboard-response","455","1184094","0.0-7.0-2.10-0.10","1783","<p>You can take a quick break now if you need it.</p>
      <p>Press the spacebar to continue.</p>"," ","",""
"","","","","","html-keyboard-response","456","1185095","0.0-7.0-0.11","null","<div style=""font-size:60px;"">+</div>","null","fixation",""
"","","","","","video-keyboard-response","457","1186137","0.0-7.0-1.11","1040","[""videos/med_high_c6_white.mov""]","f","response","false"
"","","","","","html-keyboard-response","458","1186638","0.0-7.0-0.12","null","<div style=""font-size:60px;"">+</div>","null","fixation",""
"","","","","","video-keyboard-response","459","1187837","0.0-7.0-1.12","1197","[""videos/med_high_c3_white_mirror.mov""]","f","response","false"
"","","","","","html-keyboard-response","460","1188589","0.0-7.0-0.13","null","<div style=""font-size:60px;"">+</div>","null","fixation",""
"","","","","","video-keyboard-response","461","1189660","0.0-7.0-1.13","1070","[""videos/slow_med_c2_white_mirror.mov""]","f","response","false"
"","","","","","html-keyboard-response","462","1190162","0.0-7.0-0.14","null","<div style=""font-size:60px;"">+</div>","null","fixation",""
"","","","","","video-keyboard-response","463","1191318","0.0-7.0-1.14","1155","[""videos/fast_high_c4_white.mov""]","f","response","false"
"","","","","","html-keyboard-response","464","1192071","0.0-7.0-0.15","null","<div style=""font-size:60px;"">+</div>","null","fixation",""
"","","","","","video-keyboard-response","465","1193507","0.0-7.0-1.15","1435","[""videos/slow_low_c12_white.mov""]","j","response","false"
"","","","","","html-keyboard-response","466","1194259","0.0-7.0-0.16","null","<div style=""font-size:60px;"">+</div>","null","fixation",""
"","","","","","video-keyboard-response","467","1195356","0.0-7.0-1.16","1095","[""videos/fast_med_c14_white_mirror.mov""]","f","response","false"
"","","","","","html-keyboard-response","468","1196357","0.0-7.0-0.17","null","<div style=""font-size:60px;"">+</div>","null","fixation",""
"","","","","","video-keyboard-response","469","1197709","0.0-7.0-1.17","1351","[""videos/med_low_c10_white.mov""]","j","response","false"
"","","","","","html-keyboard-response","470","1198211","0.0-7.0-0.18","null","<div style=""font-size:60px;"">+</div>","null","fixation",""
"","","","","","video-keyboard-response","471","1199567","0.0-7.0-1.18","1355","[""videos/med_low_c8_white_mirror.mov""]","f","response","false"
"","","","","","html-keyboard-response","472","1200568","0.0-7.0-0.19","null","<div style=""font-size:60px;"">+</div>","null","fixation",""
"","","","","","video-keyboard-response","473","1201839","0.0-7.0-1.19","1270","[""videos/slow_high_c2_white_mirror.mov""]","f","response","false"
"","","","","","html-keyboard-response","474","1202840","0.0-7.0-0.20","null","<div style=""font-size:60px;"">+</div>","null","fixation",""
"","","","","","video-keyboard-response","475","1204056","0.0-7.0-1.20","1215","[""videos/slow_low_c3_white_mirror.mov""]","j","response","false"
"","","","","","html-keyboard-response","476","1204557","0.0-7.0-0.21","null","<div style=""font-size:60px;"">+</div>","null","fixation",""
"","","","","","video-keyboard-response","477","1205855","0.0-7.0-1.21","1296","[""videos/med_med_c11_white_mirror.mov""]","j","response","false"
"","","","","","html-keyboard-response","478","1206607","0.0-7.0-0.22","null","<div style=""font-size:60px;"">+</div>","null","fixation",""
"","","","","","video-keyboard-response","479","1208079","0.0-7.0-1.22","1471","[""videos/fast_high_c15_white.mov""]","j","response","false"
"","","","","","html-keyboard-response","480","1209081","0.0-7.0-0.23","null","<div style=""font-size:60px;"">+</div>","null","fixation",""
"","","","","","video-keyboard-response","481","1210281","0.0-7.0-1.23","1199","[""videos/slow_low_c1_white.mov""]","j","response","false"
"","","","","","html-keyboard-response","482","1211034","0.0-7.0-0.24","null","<div style=""font-size:60px;"">+</div>","null","fixation",""
"","","","","","video-keyboard-response","483","1212605","0.0-7.0-1.24","1570","[""videos/fast_low_c17_white.mov""]","f","response","false"
"","","","","","html-keyboard-response","484","1213607","0.0-7.0-0.25","null","<div style=""font-size:60px;"">+</div>","null","fixation",""
"","","","","","video-keyboard-response","485","1214445","0.0-7.0-1.25","837","[""videos/slow_high_c13_white.mov""]","j","response","false"
"","","","","","html-keyboard-response","486","1215447","0.0-7.0-0.26","null","<div style=""font-size:60px;"">+</div>","null","fixation",""
"","","","","","video-keyboard-response","487","1216914","0.0-7.0-1.26","1466","[""videos/med_med_c1_white_mirror.mov""]","f","response","false"
"","","","","","html-keyboard-response","488","1217916","0.0-7.0-0.27","null","<div style=""font-size:60px;"">+</div>","null","fixation",""
"","","","","","video-keyboard-response","489","1219188","0.0-7.0-1.27","1271","[""videos/slow_high_c3_white.mov""]","j","response","false"
"","","","","","html-keyboard-response","490","1219690","0.0-7.0-0.28","null","<div style=""font-size:60px;"">+</div>","null","fixation",""
"","","","","","video-keyboard-response","491","1221209","0.0-7.0-1.28","1518","[""videos/fast_low_c15_white.mov""]","f","response","false"
"","","","","","html-keyboard-response","492","1222211","0.0-7.0-0.29","null","<div style=""font-size:60px;"">+</div>","null","fixation",""
"","","","","","video-keyboard-response","493","1223643","0.0-7.0-1.29","1430","[""videos/slow_med_c4_white.mov""]","f","response","false"
"","","","","","html-keyboard-response","494","1224144","0.0-7.0-0.30","null","<div style=""font-size:60px;"">+</div>","null","fixation",""
"","","","","","video-keyboard-response","495","1225610","0.0-7.0-1.30","1464","[""videos/med_high_c5_white.mov""]","f","response","false"
"","","","","","html-keyboard-response","496","1227821","0.0-7.0-2.30-0.30","2211","<p>You can take a quick break now if you need it.</p>
      <p>Press the spacebar to continue.</p>"," ","",""
"","","","","","html-keyboard-response","497","1228322","0.0-7.0-0.31","null","<div style=""font-size:60px;"">+</div>","null","fixation",""
"","","","","","video-keyboard-response","498","1229593","0.0-7.0-1.31","1270","[""videos/med_low_c2_white_mirror.mov""]","f","response","false"
"","","","","","html-keyboard-response","499","1230594","0.0-7.0-0.32","null","<div style=""font-size:60px;"">+</div>","null","fixation",""
"","","","","","video-keyboard-response","500","1231624","0.0-7.0-1.32","1028","[""videos/slow_low_c5_white_mirror.mov""]","j","response","false"
"","","","","","html-keyboard-response","501","1232626","0.0-7.0-0.33","null","<div style=""font-size:60px;"">+</div>","null","fixation",""
"","","","","","video-keyboard-response","502","1233824","0.0-7.0-1.33","1197","[""videos/slow_high_c1_white.mov""]","j","response","false"
"","","","","","html-keyboard-response","503","1234576","0.0-7.0-0.34","null","<div style=""font-size:60px;"">+</div>","null","fixation",""
"","","","","","video-keyboard-response","504","1235693","0.0-7.0-1.34","1115","[""videos/med_med_c6_white_mirror.mov""]","f","response","false"
"","","","","","html-keyboard-response","505","1236195","0.0-7.0-0.35","null","<div style=""font-size:60px;"">+</div>","null","fixation",""
"","","","","","video-keyboard-response","506","1237994","0.0-7.0-1.35","1797","[""videos/fast_med_c16_white.mov""]","f","response","false"
"","","","","","html-keyboard-response","507","1238997","0.0-7.0-0.36","null","<div style=""font-size:60px;"">+</div>","null","fixation",""
"","","","","","video-keyboard-response","508","1240319","0.0-7.0-1.36","1321","[""videos/slow_high_c6_white_mirror.mov""]","j","response","false"
"","","","","","html-keyboard-response","509","1241072","0.0-7.0-0.37","null","<div style=""font-size:60px;"">+</div>","null","fixation",""
"","","","","","video-keyboard-response","510","1242277","0.0-7.0-1.37","1204","[""videos/med_med_c4_white_mirror.mov""]","f","response","false"
"","","","","","html-keyboard-response","511","1243029","0.0-7.0-0.38","null","<div style=""font-size:60px;"">+</div>","null","fixation",""
"","","","","","video-keyboard-response","512","1244537","0.0-7.0-1.38","1508","[""videos/med_low_c5_white.mov""]","f","response","false"
"","","","","","html-keyboard-response","513","1245289","0.0-7.0-0.39","null","<div style=""font-size:60px;"">+</div>","null","fixation",""
"","","","","","video-keyboard-response","514","1246608","0.0-7.0-1.39","1317","[""videos/fast_med_c6_white.mov""]","f","response","false"
"","","","","","html-keyboard-response","515","1247609","0.0-7.0-0.40","null","<div style=""font-size:60px;"">+</div>","null","fixation",""
"","","","","","video-keyboard-response","516","1248824","0.0-7.0-1.40","1213","[""videos/slow_med_c3_white.mov""]","f","response","false"
"","","","","","html-keyboard-response","517","1249825","0.0-7.0-0.41","null","<div style=""font-size:60px;"">+</div>","null","fixation",""
"","","","","","video-keyboard-response","518","1250860","0.0-7.0-1.41","1034","[""videos/slow_med_c7_white_mirror.mov""]","j","response","false"
"","","","","","html-keyboard-response","519","1251611","0.0-7.0-0.42","null","<div style=""font-size:60px;"">+</div>","null","fixation",""
"","","","","","video-keyboard-response","520","1252851","0.0-7.0-1.42","1239","[""videos/med_low_c16_white.mov""]","j","response","false"
"","","","","","html-keyboard-response","521","1253353","0.0-7.0-0.43","null","<div style=""font-size:60px;"">+</div>","null","fixation",""
"","","","","","video-keyboard-response","522","1254733","0.0-7.0-1.43","1379","[""videos/med_high_c8_white_mirror.mov""]","j","response","false"
"","","","","","html-keyboard-response","523","1255235","0.0-7.0-0.44","null","<div style=""font-size:60px;"">+</div>","null","fixation",""
"","","","","","video-keyboard-response","524","1256518","0.0-7.0-1.44","1282","[""videos/slow_med_c1_white_mirror.mov""]","f","response","false"
"","","","","","html-keyboard-response","525","1257521","0.0-7.0-0.45","null","<div style=""font-size:60px;"">+</div>","null","fixation",""
"","","","","","video-keyboard-response","526","1258705","0.0-7.0-1.45","1182","[""videos/fast_med_c11_white.mov""]","f","response","false"
"","","","","","html-keyboard-response","527","1259206","0.0-7.0-0.46","null","<div style=""font-size:60px;"">+</div>","null","fixation",""
"","","","","","video-keyboard-response","528","1260514","0.0-7.0-1.46","1306","[""videos/med_high_c13_white.mov""]","j","response","false"
"","","","","","html-keyboard-response","529","1261266","0.0-7.0-0.47","null","<div style=""font-size:60px;"">+</div>","null","fixation",""
"","","","","","video-keyboard-response","530","1262401","0.0-7.0-1.47","1134","[""videos/fast_high_c11_white_mirror.mov""]","j","response","false"
"","","","","","html-keyboard-response","531","1263402","0.0-7.0-0.48","null","<div style=""font-size:60px;"">+</div>","null","fixation",""
"","","","","","video-keyboard-response","532","1265527","0.0-7.0-1.48","2123","[""videos/fast_high_c10_white_mirror.mov""]","j","response","false"
"","","","","","html-keyboard-response","533","1266279","0.0-7.0-0.49","null","<div style=""font-size:60px;"">+</div>","null","fixation",""
"","","","","","video-keyboard-response","534","1267706","0.0-7.0-1.49","1426","[""videos/med_high_c1_white_mirror.mov""]","f","response","false"
"","","","","","html-keyboard-response","535","1268207","0.0-7.0-0.50","null","<div style=""font-size:60px;"">+</div>","null","fixation",""
"","","","","","video-keyboard-response","536","1269452","0.0-7.0-1.50","1243","[""videos/med_low_c9_white_mirror.mov""]","j","response","false"
"","","","","","html-keyboard-response","537","1271588","0.0-7.0-2.50-0.50","2136","<p>You can take a quick break now if you need it.</p>
      <p>Press the spacebar to continue.</p>"," ","",""
"","","","","","html-keyboard-response","538","1272340","0.0-7.0-0.51","null","<div style=""font-size:60px;"">+</div>","null","fixation",""
"","","","","","video-keyboard-response","539","1273416","0.0-7.0-1.51","1074","[""videos/fast_high_c8_white.mov""]","f","response","false"
"","","","","","html-keyboard-response","540","1274418","0.0-7.0-0.52","null","<div style=""font-size:60px;"">+</div>","null","fixation",""
"","","","","","video-keyboard-response","541","1275639","0.0-7.0-1.52","1220","[""videos/slow_med_c5_white.mov""]","j","response","false"
"","","","","","html-keyboard-response","542","1276391","0.0-7.0-0.53","null","<div style=""font-size:60px;"">+</div>","null","fixation",""
"","","","","","video-keyboard-response","543","1277867","0.0-7.0-1.53","1474","[""videos/fast_low_c16_white.mov""]","j","response","false"
"","","","","","html-keyboard-response","544","1278368","0.0-7.0-0.54","null","<div style=""font-size:60px;"">+</div>","null","fixation",""
"","","","","","video-keyboard-response","545","1279917","0.0-7.0-1.54","1548","[""videos/fast_med_c15_white_mirror.mov""]","f","response","false"
"","","","","","html-keyboard-response","546","1280918","0.0-7.0-0.55","null","<div style=""font-size:60px;"">+</div>","null","fixation",""
"","","","","","video-keyboard-response","547","1282363","0.0-7.0-1.55","1444","[""videos/med_med_c14_white.mov""]","j","response","false"
"","","","","","html-keyboard-response","548","1283115","0.0-7.0-0.56","null","<div style=""font-size:60px;"">+</div>","null","fixation",""
"","","","","","video-keyboard-response","549","1284463","0.0-7.0-1.56","1347","[""videos/fast_low_c14_white_mirror.mov""]","f","response","false"
"","","","","","html-keyboard-response","550","1284964","0.0-7.0-0.57","null","<div style=""font-size:60px;"">+</div>","null","fixation",""
"","","","","","video-keyboard-response","551","1286337","0.0-7.0-1.57","1371","[""videos/med_med_c9_white.mov""]","j","response","false"
"","","","","","html-keyboard-response","552","1287089","0.0-7.0-0.58","null","<div style=""font-size:60px;"">+</div>","null","fixation",""
"","","","","","video-keyboard-response","553","1288193","0.0-7.0-1.58","1103","[""videos/med_med_c8_white.mov""]","j","response","false"
"","","","","","html-keyboard-response","554","1288944","0.0-7.0-0.59","null","<div style=""font-size:60px;"">+</div>","null","fixation",""
"","","","","","video-keyboard-response","555","1289983","0.0-7.0-1.59","1037","[""videos/med_low_c12_white_mirror.mov""]","j","response","false"
"","","","","","html-keyboard-response","556","1290985","0.0-7.0-0.60","null","<div style=""font-size:60px;"">+</div>","null","fixation",""
"","","","","","video-keyboard-response","557","1292255","0.0-7.0-1.60","1268","[""videos/fast_med_c17_white_mirror.mov""]","j","response","false"
"","","","","","html-keyboard-response","558","1293257","0.0-7.0-0.61","null","<div style=""font-size:60px;"">+</div>","null","fixation",""
"","","","","","video-keyboard-response","559","1294312","0.0-7.0-1.61","1053","[""videos/slow_low_c2_white_mirror.mov""]","j","response","false"
"","","","","","html-keyboard-response","560","1295064","0.0-7.0-0.62","null","<div style=""font-size:60px;"">+</div>","null","fixation",""
"","","","","","video-keyboard-response","561","1295964","0.0-7.0-1.62","899","[""videos/slow_low_c4_white.mov""]","j","response","false"
"","","","","","html-keyboard-response","562","1296967","0.0-7.0-0.63","null","<div style=""font-size:60px;"">+</div>","null","fixation",""
"","","","","","video-keyboard-response","563","1298097","0.0-7.0-1.63","1129","[""videos/fast_high_c13_white_mirror.mov""]","j","response","false"
"","","","","","html-keyboard-response","564","1298599","0.0-7.0-0.64","null","<div style=""font-size:60px;"">+</div>","null","fixation",""
"","","","","","video-keyboard-response","565","1299886","0.0-7.0-1.64","1286","[""videos/fast_low_c5_white_mirror.mov""]","f","response","false"
"","","","","","html-keyboard-response","566","1302888","0.0-8.0","3002","<p>Thank you for completing the experiment.</p>"," ","",""
