"success","timeout","failed_images","failed_audio","failed_video","trial_type","trial_index","time_elapsed","internal_node_id","rt","stimulus","response","task","test_trial"
"true","false","[]","[]","[]","preload","0","1228","0.0-0.0","","","","",""
"","","","","","html-keyboard-response","1","8776","0.0-1.0","7546","Welcome to the experiment. Press any key to begin."," ","",""
"","","","","","html-keyboard-response","2","28462","0.0-2.0","19685","
        <p>In this experiment, you will be shown short movies containing two objects. One of the objects will be moving toward the other.</p>
        <p>In these movies, the moving object either collides with the stationary object, or it comes to a stop before reaching the stationary object.
          However, you will be shown a clipped version of the movie that does not reveal the ending.</p> 
        <p>Please watch each clip carefully. Then predict whether or not the two objects will collide later on in the video.</p>
        <p>Press the <b>""F""</b> key for <b>yes</b>, the objects will collide.</p> 
        <p>Press the <b>""J""</b> key for <b>no</b>, the objects will not collide.</p>
        <p>Press any key to start.</p>
      "," ","",""
"","","","","","html-keyboard-response","3","30466","0.0-3.0-0.0","null","<div style=""font-size:60px;"">+</div>","null","fixation",""
"","","","","","video-keyboard-response","4","32780","0.0-3.0-1.0","2313","[""videos/fast_med_c11_white_mirror.mov""]","f","response","false"
"","","","","","html-keyboard-response","5","33282","0.0-3.0-0.1","null","<div style=""font-size:60px;"">+</div>","null","fixation",""
"","","","","","video-keyboard-response","6","35135","0.0-3.0-1.1","1852","[""videos/fast_low_c17_white_mirror.mov""]","j","response","false"
"","","","","","html-keyboard-response","7","35887","0.0-3.0-0.2","null","<div style=""font-size:60px;"">+</div>","null","fixation",""
"","","","","","video-keyboard-response","8","38424","0.0-3.0-1.2","2535","[""videos/med_low_c9_white.mov""]","j","response","false"
"","","","","","html-keyboard-response","9","39177","0.0-3.0-0.3","null","<div style=""font-size:60px;"">+</div>","null","fixation",""
"","","","","","video-keyboard-response","10","42112","0.0-3.0-1.3","2934","[""videos/med_med_c7_white.mov""]","f","response","false"
"","","","","","html-keyboard-response","11","42863","0.0-3.0-0.4","null","<div style=""font-size:60px;"">+</div>","null","fixation",""
"","","","","","video-keyboard-response","12","44662","0.0-3.0-1.4","1798","[""videos/med_high_c8_white.mov""]","j","response","false"
"","","","","","html-keyboard-response","13","45664","0.0-3.0-0.5","null","<div style=""font-size:60px;"">+</div>","null","fixation",""
"","","","","","video-keyboard-response","14","47609","0.0-3.0-1.5","1944","[""videos/slow_low_c2_white_mirror.mov""]","f","response","false"
"","","","","","html-keyboard-response","15","48111","0.0-3.0-0.6","null","<div style=""font-size:60px;"">+</div>","null","fixation",""
"","","","","","video-keyboard-response","16","49731","0.0-3.0-1.6","1619","[""videos/slow_high_c6_white_mirror.mov""]","j","response","false"
"","","","","","html-keyboard-response","17","50484","0.0-3.0-0.7","null","<div style=""font-size:60px;"">+</div>","null","fixation",""
"","","","","","video-keyboard-response","18","52669","0.0-3.0-1.7","2184","[""videos/med_med_c11_white_mirror.mov""]","j","response","false"
"","","","","","html-keyboard-response","19","53670","0.0-3.0-0.8","null","<div style=""font-size:60px;"">+</div>","null","fixation",""
"","","","","","video-keyboard-response","20","55405","0.0-3.0-1.8","1733","[""videos/med_low_c2_white.mov""]","f","response","false"
"","","","","","html-keyboard-response","21","56157","0.0-3.0-0.9","null","<div style=""font-size:60px;"">+</div>","null","fixation",""
"","","","","","video-keyboard-response","22","57588","0.0-3.0-1.9","1429","[""videos/fast_high_c12_white.mov""]","j","response","false"
"","","","","","html-keyboard-response","23","58590","0.0-3.0-0.10","null","<div style=""font-size:60px;"">+</div>","null","fixation",""
"","","","","","video-keyboard-response","24","60955","0.0-3.0-1.10","2363","[""videos/med_high_c1_white.mov""]","j","response","false"
"","","","","","html-keyboard-response","25","61707","0.0-3.0-0.11","null","<div style=""font-size:60px;"">+</div>","null","fixation",""
"","","","","","video-keyboard-response","26","63423","0.0-3.0-1.11","1714","[""videos/slow_high_c3_white.mov""]","j","response","false"
"","","","","","html-keyboard-response","27","64175","0.0-3.0-0.12","null","<div style=""font-size:60px;"">+</div>","null","fixation",""
"","","","","","video-keyboard-response","28","65778","0.0-3.0-1.12","1602","[""videos/slow_low_c3_white_mirror.mov""]","j","response","false"
"","","","","","html-keyboard-response","29","66279","0.0-3.0-0.13","null","<div style=""font-size:60px;"">+</div>","null","fixation",""
"","","","","","video-keyboard-response","30","67896","0.0-3.0-1.13","1615","[""videos/med_high_c5_white_mirror.mov""]","j","response","false"
"","","","","","html-keyboard-response","31","68398","0.0-3.0-0.14","null","<div style=""font-size:60px;"">+</div>","null","fixation",""
"","","","","","video-keyboard-response","32","70217","0.0-3.0-1.14","1818","[""videos/fast_high_c10_white.mov""]","j","response","false"
"","","","","","html-keyboard-response","33","71219","0.0-3.0-0.15","null","<div style=""font-size:60px;"">+</div>","null","fixation",""
"","","","","","video-keyboard-response","34","73133","0.0-3.0-1.15","1912","[""videos/med_high_c10_white_mirror.mov""]","j","response","false"
"","","","","","html-keyboard-response","35","73634","0.0-3.0-0.16","null","<div style=""font-size:60px;"">+</div>","null","fixation",""
"","","","","","video-keyboard-response","36","75313","0.0-3.0-1.16","1677","[""videos/med_low_c7_white_mirror.mov""]","f","response","false"
"","","","","","html-keyboard-response","37","76315","0.0-3.0-0.17","null","<div style=""font-size:60px;"">+</div>","null","fixation",""
"","","","","","video-keyboard-response","38","77901","0.0-3.0-1.17","1585","[""videos/fast_high_c15_white.mov""]","j","response","false"
"","","","","","html-keyboard-response","39","78654","0.0-3.0-0.18","null","<div style=""font-size:60px;"">+</div>","null","fixation",""
"","","","","","video-keyboard-response","40","80391","0.0-3.0-1.18","1736","[""videos/fast_low_c16_white.mov""]","j","response","false"
"","","","","","html-keyboard-response","41","80893","0.0-3.0-0.19","null","<div style=""font-size:60px;"">+</div>","null","fixation",""
"","","","","","video-keyboard-response","42","82474","0.0-3.0-1.19","1579","[""videos/fast_high_c8_white_mirror.mov""]","f","response","false"
"","","","","","html-keyboard-response","43","84555","0.0-3.0-2.19-0.19","2081","<p>You can take a quick break now if you need it.</p>
      <p>Press the spacebar to continue.</p>"," ","",""
"","","","","","html-keyboard-response","44","85557","0.0-3.0-0.20","null","<div style=""font-size:60px;"">+</div>","null","fixation",""
"","","","","","video-keyboard-response","45","87663","0.0-3.0-1.20","2105","[""videos/med_med_c1_white.mov""]","f","response","false"
"","","","","","html-keyboard-response","46","88164","0.0-3.0-0.21","null","<div style=""font-size:60px;"">+</div>","null","fixation",""
"","","","","","video-keyboard-response","47","90737","0.0-3.0-1.21","2571","[""videos/fast_low_c14_white_mirror.mov""]","f","response","false"
"","","","","","html-keyboard-response","48","91739","0.0-3.0-0.22","null","<div style=""font-size:60px;"">+</div>","null","fixation",""
"","","","","","video-keyboard-response","49","93620","0.0-3.0-1.22","1880","[""videos/fast_med_c14_white.mov""]","f","response","false"
"","","","","","html-keyboard-response","50","94622","0.0-3.0-0.23","null","<div style=""font-size:60px;"">+</div>","null","fixation",""
"","","","","","video-keyboard-response","51","96322","0.0-3.0-1.23","1698","[""videos/med_med_c4_white_mirror.mov""]","f","response","false"
"","","","","","html-keyboard-response","52","97323","0.0-3.0-0.24","null","<div style=""font-size:60px;"">+</div>","null","fixation",""
"","","","","","video-keyboard-response","53","98934","0.0-3.0-1.24","1609","[""videos/med_med_c8_white_mirror.mov""]","f","response","false"
"","","","","","html-keyboard-response","54","99435","0.0-3.0-0.25","null","<div style=""font-size:60px;"">+</div>","null","fixation",""
"","","","","","video-keyboard-response","55","101317","0.0-3.0-1.25","1880","[""videos/fast_med_c17_white.mov""]","j","response","false"
"","","","","","html-keyboard-response","56","102318","0.0-3.0-0.26","null","<div style=""font-size:60px;"">+</div>","null","fixation",""
"","","","","","video-keyboard-response","57","105114","0.0-3.0-1.26","2794","[""videos/slow_med_c3_white_mirror.mov""]","f","response","false"
"","","","","","html-keyboard-response","58","106116","0.0-3.0-0.27","null","<div style=""font-size:60px;"">+</div>","null","fixation",""
"","","","","","video-keyboard-response","59","107896","0.0-3.0-1.27","1779","[""videos/med_high_c7_white.mov""]","j","response","false"
"","","","","","html-keyboard-response","60","108648","0.0-3.0-0.28","null","<div style=""font-size:60px;"">+</div>","null","fixation",""
"","","","","","video-keyboard-response","61","109916","0.0-3.0-1.28","1267","[""videos/slow_low_c12_white.mov""]","j","response","false"
"","","","","","html-keyboard-response","62","110917","0.0-3.0-0.29","null","<div style=""font-size:60px;"">+</div>","null","fixation",""
"","","","","","video-keyboard-response","63","112540","0.0-3.0-1.29","1621","[""videos/slow_high_c4_white.mov""]","j","response","false"
"","","","","","html-keyboard-response","64","113292","0.0-3.0-0.30","null","<div style=""font-size:60px;"">+</div>","null","fixation",""
"","","","","","video-keyboard-response","65","116008","0.0-3.0-1.30","2714","[""videos/slow_low_c7_white_mirror.mov""]","j","response","false"
"","","","","","html-keyboard-response","66","116760","0.0-3.0-0.31","null","<div style=""font-size:60px;"">+</div>","null","fixation",""
"","","","","","video-keyboard-response","67","118877","0.0-3.0-1.31","2115","[""videos/med_low_c10_white.mov""]","j","response","false"
"","","","","","html-keyboard-response","68","119378","0.0-3.0-0.32","null","<div style=""font-size:60px;"">+</div>","null","fixation",""
"","","","","","video-keyboard-response","69","121050","0.0-3.0-1.32","1670","[""videos/fast_low_c5_white.mov""]","f","response","false"
"","","","","","html-keyboard-response","70","121802","0.0-3.0-0.33","null","<div style=""font-size:60px;"">+</div>","null","fixation",""
"","","","","","video-keyboard-response","71","123258","0.0-3.0-1.33","1455","[""videos/fast_med_c6_white.mov""]","f","response","false"
"","","","","","html-keyboard-response","72","124259","0.0-3.0-0.34","null","<div style=""font-size:60px;"">+</div>","null","fixation",""
"","","","","","video-keyboard-response","73","125769","0.0-3.0-1.34","1509","[""videos/slow_med_c5_white.mov""]","j","response","false"
"","","","","","html-keyboard-response","74","126270","0.0-3.0-0.35","null","<div style=""font-size:60px;"">+</div>","null","fixation",""
"","","","","","video-keyboard-response","75","127856","0.0-3.0-1.35","1585","[""videos/fast_low_c12_white_mirror.mov""]","f","response","false"
"","","","","","html-keyboard-response","76","128858","0.0-3.0-0.36","null","<div style=""font-size:60px;"">+</div>","null","fixation",""
"","","","","","video-keyboard-response","77","131654","0.0-3.0-1.36","2795","[""videos/slow_low_c4_white.mov""]","f","response","false"
"","","","","","html-keyboard-response","78","132156","0.0-3.0-0.37","null","<div style=""font-size:60px;"">+</div>","null","fixation",""
"","","","","","video-keyboard-response","79","133942","0.0-3.0-1.37","1785","[""videos/fast_med_c16_white_mirror.mov""]","j","response","false"
"","","","","","html-keyboard-response","80","134695","0.0-3.0-0.38","null","<div style=""font-size:60px;"">+</div>","null","fixation",""
"","","","","","video-keyboard-response","81","136238","0.0-3.0-1.38","1542","[""videos/slow_med_c7_white.mov""]","j","response","false"
"","","","","","html-keyboard-response","82","136740","0.0-3.0-0.39","null","<div style=""font-size:60px;"">+</div>","null","fixation",""
"","","","","","video-keyboard-response","83","138255","0.0-3.0-1.39","1514","[""videos/slow_med_c2_white.mov""]","f","response","false"
"","","","","","html-keyboard-response","84","140195","0.0-3.0-2.39-0.39","1939","<p>You can take a quick break now if you need it.</p>
      <p>Press the spacebar to continue.</p>"," ","",""
"","","","","","html-keyboard-response","85","140697","0.0-3.0-0.40","null","<div style=""font-size:60px;"">+</div>","null","fixation",""
"","","","","","video-keyboard-response","86","142708","0.0-3.0-1.40","2010","[""videos/med_med_c6_white.mov""]","f","response","false"
"","","","","","html-keyboard-response","87","143460","0.0-3.0-0.41","null","<div style=""font-size:60px;"">+</div>","null","fixation",""
"","","","","","video-keyboard-response","88","144781","0.0-3.0-1.41","1320","[""videos/slow_low_c1_white.mov""]","f","response","false"
"","","","","","html-keyboard-response","89","145533","0.0-3.0-0.42","null","<div style=""font-size:60px;"">+</div>","null","fixation",""
"","","","","","video-keyboard-response","90","146909","0.0-3.0-1.42","1374","[""videos/slow_med_c1_white_mirror.mov""]","f","response","false"
"","","","","","html-keyboard-response","91","147910","0.0-3.0-0.43","null","<div style=""font-size:60px;"">+</div>","null","fixation",""
"","","","","","video-keyboard-response","92","149167","0.0-3.0-1.43","1256","[""videos/med_med_c14_white.mov""]","j","response","false"
"","","","","","html-keyboard-response","93","149919","0.0-3.0-0.44","null","<div style=""font-size:60px;"">+</div>","null","fixation",""
"","","","","","video-keyboard-response","94","151364","0.0-3.0-1.44","1444","[""videos/slow_high_c1_white_mirror.mov""]","f","response","false"
"","","","","","html-keyboard-response","95","152117","0.0-3.0-0.45","null","<div style=""font-size:60px;"">+</div>","null","fixation",""
"","","","","","video-keyboard-response","96","153976","0.0-3.0-1.45","1858","[""videos/slow_med_c4_white_mirror.mov""]","f","response","false"
"","","","","","html-keyboard-response","97","154478","0.0-3.0-0.46","null","<div style=""font-size:60px;"">+</div>","null","fixation",""
"","","","","","video-keyboard-response","98","155738","0.0-3.0-1.46","1259","[""videos/med_low_c12_white_mirror.mov""]","j","response","false"
"","","","","","html-keyboard-response","99","156490","0.0-3.0-0.47","null","<div style=""font-size:60px;"">+</div>","null","fixation",""
"","","","","","video-keyboard-response","100","158556","0.0-3.0-1.47","2064","[""videos/slow_low_c5_white.mov""]","j","response","false"
"","","","","","html-keyboard-response","101","159057","0.0-3.0-0.48","null","<div style=""font-size:60px;"">+</div>","null","fixation",""
"","","","","","video-keyboard-response","102","160636","0.0-3.0-1.48","1577","[""videos/med_high_c6_white.mov""]","f","response","false"
"","","","","","html-keyboard-response","103","161138","0.0-3.0-0.49","null","<div style=""font-size:60px;"">+</div>","null","fixation",""
"","","","","","video-keyboard-response","104","162507","0.0-3.0-1.49","1368","[""videos/med_low_c8_white_mirror.mov""]","j","response","false"
"","","","","","html-keyboard-response","105","163510","0.0-3.0-0.50","null","<div style=""font-size:60px;"">+</div>","null","fixation",""
"","","","","","video-keyboard-response","106","165638","0.0-3.0-1.50","2127","[""videos/fast_med_c15_white_mirror.mov""]","j","response","false"
"","","","","","html-keyboard-response","107","166140","0.0-3.0-0.51","null","<div style=""font-size:60px;"">+</div>","null","fixation",""
"","","","","","video-keyboard-response","108","167166","0.0-3.0-1.51","1024","[""videos/slow_med_c10_white.mov""]","j","response","false"
"","","","","","html-keyboard-response","109","168168","0.0-3.0-0.52","null","<div style=""font-size:60px;"">+</div>","null","fixation",""
"","","","","","video-keyboard-response","110","169663","0.0-3.0-1.52","1493","[""videos/slow_high_c13_white.mov""]","j","response","false"
"","","","","","html-keyboard-response","111","170414","0.0-3.0-0.53","null","<div style=""font-size:60px;"">+</div>","null","fixation",""
"","","","","","video-keyboard-response","112","172260","0.0-3.0-1.53","1845","[""videos/slow_high_c2_white_mirror.mov""]","f","response","false"
"","","","","","html-keyboard-response","113","172761","0.0-3.0-0.54","null","<div style=""font-size:60px;"">+</div>","null","fixation",""
"","","","","","video-keyboard-response","114","174112","0.0-3.0-1.54","1350","[""videos/med_low_c16_white_mirror.mov""]","j","response","false"
"","","","","","html-keyboard-response","115","174614","0.0-3.0-0.55","null","<div style=""font-size:60px;"">+</div>","null","fixation",""
"","","","","","video-keyboard-response","116","176138","0.0-3.0-1.55","1522","[""videos/med_high_c13_white_mirror.mov""]","j","response","false"
"","","","","","html-keyboard-response","117","177140","0.0-3.0-0.56","null","<div style=""font-size:60px;"">+</div>","null","fixation",""
"","","","","","video-keyboard-response","118","181313","0.0-3.0-1.56","4171","[""videos/fast_high_c11_white_mirror.mov""]","f","response","false"
"","","","","","html-keyboard-response","119","181813","0.0-3.0-0.57","null","<div style=""font-size:60px;"">+</div>","null","fixation",""
"","","","","","video-keyboard-response","120","184674","0.0-3.0-1.57","2860","[""videos/fast_low_c15_white.mov""]","j","response","false"
"","","","","","html-keyboard-response","121","185677","0.0-3.0-0.58","null","<div style=""font-size:60px;"">+</div>","null","fixation",""
"","","","","","video-keyboard-response","122","187312","0.0-3.0-1.58","1634","[""videos/med_med_c9_white_mirror.mov""]","j","response","false"
"","","","","","html-keyboard-response","123","187814","0.0-3.0-0.59","null","<div style=""font-size:60px;"">+</div>","null","fixation",""
"","","","","","video-keyboard-response","124","190280","0.0-3.0-1.59","2465","[""videos/med_high_c3_white_mirror.mov""]","f","response","false"
"","","","","","html-keyboard-response","125","192021","0.0-3.0-2.59-0.59","1740","<p>You can take a quick break now if you need it.</p>
      <p>Press the spacebar to continue.</p>"," ","",""
"","","","","","html-keyboard-response","126","192773","0.0-3.0-0.60","null","<div style=""font-size:60px;"">+</div>","null","fixation",""
"","","","","","video-keyboard-response","127","194218","0.0-3.0-1.60","1444","[""videos/fast_high_c17_white.mov""]","j","response","false"
"","","","","","html-keyboard-response","128","195219","0.0-3.0-0.61","null","<div style=""font-size:60px;"">+</div>","null","fixation",""
"","","","","","video-keyboard-response","129","196583","0.0-3.0-1.61","1364","[""videos/med_low_c5_white.mov""]","f","response","false"
"","","","","","html-keyboard-response","130","197335","0.0-3.0-0.62","null","<div style=""font-size:60px;"">+</div>","null","fixation",""
"","","","","","video-keyboard-response","131","198634","0.0-3.0-1.62","1298","[""videos/fast_med_c13_white.mov""]","f","response","false"
"","","","","","html-keyboard-response","132","199385","0.0-3.0-0.63","null","<div style=""font-size:60px;"">+</div>","null","fixation",""
"","","","","","video-keyboard-response","133","200566","0.0-3.0-1.63","1179","[""videos/fast_high_c13_white_mirror.mov""]","j","response","false"
"","","","","","html-keyboard-response","134","201067","0.0-3.0-0.64","null","<div style=""font-size:60px;"">+</div>","null","fixation",""
"","","","","","video-keyboard-response","135","202418","0.0-3.0-1.64","1350","[""videos/fast_high_c4_white_mirror.mov""]","f","response","false"
"","","","","","html-keyboard-response","136","205258","0.0-4.0","2840","<p>You can take a quick break now if you need it.</p>
      <p>Press the spacebar to continue.</p>"," ","",""
"","","","","","html-keyboard-response","137","205760","0.0-5.0-0.0","null","<div style=""font-size:60px;"">+</div>","null","fixation",""
"","","","","","video-keyboard-response","138","208129","0.0-5.0-1.0","2368","[""videos/fast_low_c15_pink.mov""]","j","response","false"
"","","","","","html-keyboard-response","139","208631","0.0-5.0-0.1","null","<div style=""font-size:60px;"">+</div>","null","fixation",""
"","","","","","video-keyboard-response","140","211087","0.0-5.0-1.1","2454","[""videos/med_low_c5_pink.mov""]","j","response","false"
"","","","","","html-keyboard-response","141","211837","0.0-5.0-0.2","null","<div style=""font-size:60px;"">+</div>","null","fixation",""
"","","","","","video-keyboard-response","142","213125","0.0-5.0-1.2","1287","[""videos/med_med_c9_purple.mov""]","j","response","false"
"","","","","","html-keyboard-response","143","214128","0.0-5.0-0.3","null","<div style=""font-size:60px;"">+</div>","null","fixation",""
"","","","","","video-keyboard-response","144","215245","0.0-5.0-1.3","1116","[""videos/slow_med_c10_pink_mirror.mov""]","j","response","false"
"","","","","","html-keyboard-response","145","216247","0.0-5.0-0.4","null","<div style=""font-size:60px;"">+</div>","null","fixation",""
"","","","","","video-keyboard-response","146","217767","0.0-5.0-1.4","1518","[""videos/med_high_c1_teal.mov""]","j","response","false"
"","","","","","html-keyboard-response","147","218519","0.0-5.0-0.5","null","<div style=""font-size:60px;"">+</div>","null","fixation",""
"","","","","","video-keyboard-response","148","219979","0.0-5.0-1.5","1459","[""videos/slow_low_c7_pink.mov""]","f","response","false"
"","","","","","html-keyboard-response","149","220980","0.0-5.0-0.6","null","<div style=""font-size:60px;"">+</div>","null","fixation",""
"","","","","","video-keyboard-response","150","222797","0.0-5.0-1.6","1816","[""videos/fast_high_c8_purple.mov""]","f","response","false"
"","","","","","html-keyboard-response","151","223799","0.0-5.0-0.7","null","<div style=""font-size:60px;"">+</div>","null","fixation",""
"","","","","","video-keyboard-response","152","225993","0.0-5.0-1.7","2192","[""videos/med_high_c5_tan_mirror.mov""]","f","response","false"
"","","","","","html-keyboard-response","153","226744","0.0-5.0-0.8","null","<div style=""font-size:60px;"">+</div>","null","fixation",""
"","","","","","video-keyboard-response","154","228057","0.0-5.0-1.8","1311","[""videos/med_med_c11_teal.mov""]","j","response","false"
"","","","","","html-keyboard-response","155","228558","0.0-5.0-0.9","null","<div style=""font-size:60px;"">+</div>","null","fixation",""
"","","","","","video-keyboard-response","156","230453","0.0-5.0-1.9","1894","[""videos/med_med_c4_purple_mirror.mov""]","f","response","false"
"","","","","","html-keyboard-response","157","230954","0.0-5.0-0.10","null","<div style=""font-size:60px;"">+</div>","null","fixation",""
"","","","","","video-keyboard-response","158","233107","0.0-5.0-1.10","2152","[""videos/med_high_c8_purple.mov""]","f","response","false"
"","","","","","html-keyboard-response","159","234109","0.0-5.0-0.11","null","<div style=""font-size:60px;"">+</div>","null","fixation",""
"","","","","","video-keyboard-response","160","235271","0.0-5.0-1.11","1161","[""videos/slow_low_c4_pink.mov""]","j","response","false"
"","","","","","html-keyboard-response","161","236272","0.0-5.0-0.12","null","<div style=""font-size:60px;"">+</div>","null","fixation",""
"","","","","","video-keyboard-response","162","238507","0.0-5.0-1.12","2233","[""videos/med_med_c6_purple_mirror.mov""]","f","response","false"
"","","","","","html-keyboard-response","163","239259","0.0-5.0-0.13","null","<div style=""font-size:60px;"">+</div>","null","fixation",""
"","","","","","video-keyboard-response","164","240705","0.0-5.0-1.13","1444","[""videos/slow_med_c3_pink.mov""]","f","response","false"
"","","","","","html-keyboard-response","165","241707","0.0-5.0-0.14","null","<div style=""font-size:60px;"">+</div>","null","fixation",""
"","","","","","video-keyboard-response","166","244832","0.0-5.0-1.14","3123","[""videos/med_high_c7_purple_mirror.mov""]","f","response","false"
"","","","","","html-keyboard-response","167","246932","0.0-5.0-2.14-0.14","2100","<p>You can take a quick break now if you need it.</p>
      <p>Press the spacebar to continue.</p>"," ","",""
"","","","","","html-keyboard-response","168","247934","0.0-5.0-0.15","null","<div style=""font-size:60px;"">+</div>","null","fixation",""
"","","","","","video-keyboard-response","169","249608","0.0-5.0-1.15","1672","[""videos/fast_med_c6_pink.mov""]","f","response","false"
"","","","","","html-keyboard-response","170","250609","0.0-5.0-0.16","null","<div style=""font-size:60px;"">+</div>","null","fixation",""
"","","","","","video-keyboard-response","171","251886","0.0-5.0-1.16","1276","[""videos/slow_low_c7_teal_mirror.mov""]","j","response","false"
"","","","","","html-keyboard-response","172","252387","0.0-5.0-0.17","null","<div style=""font-size:60px;"">+</div>","null","fixation",""
"","","","","","video-keyboard-response","173","253551","0.0-5.0-1.17","1162","[""videos/med_low_c9_purple_mirror.mov""]","j","response","false"
"","","","","","html-keyboard-response","174","254053","0.0-5.0-0.18","null","<div style=""font-size:60px;"">+</div>","null","fixation",""
"","","","","","video-keyboard-response","175","255687","0.0-5.0-1.18","1633","[""videos/fast_high_c12_pink.mov""]","j","response","false"
"","","","","","html-keyboard-response","176","256689","0.0-5.0-0.19","null","<div style=""font-size:60px;"">+</div>","null","fixation",""
"","","","","","video-keyboard-response","177","258455","0.0-5.0-1.19","1764","[""videos/fast_med_c15_purple.mov""]","f","response","false"
"","","","","","html-keyboard-response","178","259456","0.0-5.0-0.20","null","<div style=""font-size:60px;"">+</div>","null","fixation",""
"","","","","","video-keyboard-response","179","261710","0.0-5.0-1.20","2253","[""videos/slow_high_c3_purple.mov""]","f","response","false"
"","","","","","html-keyboard-response","180","262712","0.0-5.0-0.21","null","<div style=""font-size:60px;"">+</div>","null","fixation",""
"","","","","","video-keyboard-response","181","265002","0.0-5.0-1.21","2288","[""videos/med_low_c7_pink_mirror.mov""]","f","response","false"
"","","","","","html-keyboard-response","182","265754","0.0-5.0-0.22","null","<div style=""font-size:60px;"">+</div>","null","fixation",""
"","","","","","video-keyboard-response","183","268028","0.0-5.0-1.22","2273","[""videos/fast_med_c16_tan_mirror.mov""]","f","response","false"
"","","","","","html-keyboard-response","184","269030","0.0-5.0-0.23","null","<div style=""font-size:60px;"">+</div>","null","fixation",""
"","","","","","video-keyboard-response","185","271370","0.0-5.0-1.23","2339","[""videos/fast_low_c16_pink.mov""]","j","response","false"
"","","","","","html-keyboard-response","186","271872","0.0-5.0-0.24","null","<div style=""font-size:60px;"">+</div>","null","fixation",""
"","","","","","video-keyboard-response","187","276355","0.0-5.0-1.24","4481","[""videos/fast_med_c11_tan.mov""]","f","response","false"
"","","","","","html-keyboard-response","188","276857","0.0-5.0-0.25","null","<div style=""font-size:60px;"">+</div>","null","fixation",""
"","","","","","video-keyboard-response","189","279878","0.0-5.0-1.25","3019","[""videos/slow_med_c3_teal_mirror.mov""]","f","response","false"
"","","","","","html-keyboard-response","190","280880","0.0-5.0-0.26","null","<div style=""font-size:60px;"">+</div>","null","fixation",""
"","","","","","video-keyboard-response","191","286075","0.0-5.0-1.26","5193","[""videos/fast_high_c15_pink.mov""]","f","response","false"
"","","","","","html-keyboard-response","192","286577","0.0-5.0-0.27","null","<div style=""font-size:60px;"">+</div>","null","fixation",""
"","","","","","video-keyboard-response","193","288854","0.0-5.0-1.27","2276","[""videos/fast_med_c6_tan_mirror.mov""]","f","response","false"
"","","","","","html-keyboard-response","194","289857","0.0-5.0-0.28","null","<div style=""font-size:60px;"">+</div>","null","fixation",""
"","","","","","video-keyboard-response","195","291430","0.0-5.0-1.28","1572","[""videos/med_low_c5_purple_mirror.mov""]","j","response","false"
"","","","","","html-keyboard-response","196","291932","0.0-5.0-0.29","null","<div style=""font-size:60px;"">+</div>","null","fixation",""
"","","","","","video-keyboard-response","197","294738","0.0-5.0-1.29","2805","[""videos/fast_low_c14_tan.mov""]","f","response","false"
"","","","","","html-keyboard-response","198","295490","0.0-5.0-0.30","null","<div style=""font-size:60px;"">+</div>","null","fixation",""
"","","","","","video-keyboard-response","199","297539","0.0-5.0-1.30","2047","[""videos/fast_low_c17_tan_mirror.mov""]","j","response","false"
"","","","","","html-keyboard-response","200","298291","0.0-5.0-0.31","null","<div style=""font-size:60px;"">+</div>","null","fixation",""
"","","","","","video-keyboard-response","201","300044","0.0-5.0-1.31","1752","[""videos/slow_high_c2_pink.mov""]","f","response","false"
"","","","","","html-keyboard-response","202","301046","0.0-5.0-0.32","null","<div style=""font-size:60px;"">+</div>","null","fixation",""
"","","","","","video-keyboard-response","203","302353","0.0-5.0-1.32","1306","[""videos/slow_high_c4_teal.mov""]","j","response","false"
"","","","","","html-keyboard-response","204","303105","0.0-5.0-0.33","null","<div style=""font-size:60px;"">+</div>","null","fixation",""
"","","","","","video-keyboard-response","205","304590","0.0-5.0-1.33","1484","[""videos/med_low_c8_teal.mov""]","j","response","false"
"","","","","","html-keyboard-response","206","305092","0.0-5.0-0.34","null","<div style=""font-size:60px;"">+</div>","null","fixation",""
"","","","","","video-keyboard-response","207","306599","0.0-5.0-1.34","1506","[""videos/med_high_c3_purple_mirror.mov""]","f","response","false"
"","","","","","html-keyboard-response","208","307908","0.0-5.0-2.34-0.34","1308","<p>You can take a quick break now if you need it.</p>
      <p>Press the spacebar to continue.</p>"," ","",""
"","","","","","html-keyboard-response","209","308410","0.0-5.0-0.35","null","<div style=""font-size:60px;"">+</div>","null","fixation",""
"","","","","","video-keyboard-response","210","310683","0.0-5.0-1.35","2272","[""videos/slow_med_c4_tan_mirror.mov""]","f","response","false"
"","","","","","html-keyboard-response","211","311184","0.0-5.0-0.36","null","<div style=""font-size:60px;"">+</div>","null","fixation",""
"","","","","","video-keyboard-response","212","312617","0.0-5.0-1.36","1432","[""videos/med_high_c13_purple.mov""]","j","response","false"
"","","","","","html-keyboard-response","213","313369","0.0-5.0-0.37","null","<div style=""font-size:60px;"">+</div>","null","fixation",""
"","","","","","video-keyboard-response","214","314980","0.0-5.0-1.37","1610","[""videos/slow_med_c2_pink.mov""]","f","response","false"
"","","","","","html-keyboard-response","215","315733","0.0-5.0-0.38","null","<div style=""font-size:60px;"">+</div>","null","fixation",""
"","","","","","video-keyboard-response","216","317348","0.0-5.0-1.38","1613","[""videos/slow_high_c6_pink_mirror.mov""]","j","response","false"
"","","","","","html-keyboard-response","217","317849","0.0-5.0-0.39","null","<div style=""font-size:60px;"">+</div>","null","fixation",""
"","","","","","video-keyboard-response","218","319075","0.0-5.0-1.39","1224","[""videos/med_med_c14_teal.mov""]","j","response","false"
"","","","","","html-keyboard-response","219","320077","0.0-5.0-0.40","null","<div style=""font-size:60px;"">+</div>","null","fixation",""
"","","","","","video-keyboard-response","220","321486","0.0-5.0-1.40","1407","[""videos/slow_med_c5_tan.mov""]","j","response","false"
"","","","","","html-keyboard-response","221","322488","0.0-5.0-0.41","null","<div style=""font-size:60px;"">+</div>","null","fixation",""
"","","","","","video-keyboard-response","222","324018","0.0-5.0-1.41","1529","[""videos/slow_med_c3_tan.mov""]","f","response","false"
"","","","","","html-keyboard-response","223","324770","0.0-5.0-0.42","null","<div style=""font-size:60px;"">+</div>","null","fixation",""
"","","","","","video-keyboard-response","224","326480","0.0-5.0-1.42","1708","[""videos/fast_med_c14_purple_mirror.mov""]","f","response","false"
"","","","","","html-keyboard-response","225","326981","0.0-5.0-0.43","null","<div style=""font-size:60px;"">+</div>","null","fixation",""
"","","","","","video-keyboard-response","226","328490","0.0-5.0-1.43","1508","[""videos/slow_low_c12_teal.mov""]","j","response","false"
"","","","","","html-keyboard-response","227","329492","0.0-5.0-0.44","null","<div style=""font-size:60px;"">+</div>","null","fixation",""
"","","","","","video-keyboard-response","228","330780","0.0-5.0-1.44","1287","[""videos/slow_high_c13_tan_mirror.mov""]","j","response","false"
"","","","","","html-keyboard-response","229","331782","0.0-5.0-0.45","null","<div style=""font-size:60px;"">+</div>","null","fixation",""
"","","","","","video-keyboard-response","230","333370","0.0-5.0-1.45","1586","[""videos/med_low_c2_pink_mirror.mov""]","f","response","false"
"","","","","","html-keyboard-response","231","333872","0.0-5.0-0.46","null","<div style=""font-size:60px;"">+</div>","null","fixation",""
"","","","","","video-keyboard-response","232","335215","0.0-5.0-1.46","1341","[""videos/fast_high_c8_tan_mirror.mov""]","f","response","false"
"","","","","","html-keyboard-response","233","335716","0.0-5.0-0.47","null","<div style=""font-size:60px;"">+</div>","null","fixation",""
"","","","","","video-keyboard-response","234","337648","0.0-5.0-1.47","1930","[""videos/med_low_c9_tan.mov""]","j","response","false"
"","","","","","html-keyboard-response","235","338149","0.0-5.0-0.48","null","<div style=""font-size:60px;"">+</div>","null","fixation",""
"","","","","","video-keyboard-response","236","339881","0.0-5.0-1.48","1731","[""videos/fast_med_c13_teal_mirror.mov""]","f","response","false"
"","","","","","html-keyboard-response","237","340883","0.0-5.0-0.49","null","<div style=""font-size:60px;"">+</div>","null","fixation",""
"","","","","","video-keyboard-response","238","342573","0.0-5.0-1.49","1689","[""videos/slow_med_c5_pink_mirror.mov""]","j","response","false"
"","","","","","html-keyboard-response","239","343075","0.0-5.0-0.50","null","<div style=""font-size:60px;"">+</div>","null","fixation",""
"","","","","","video-keyboard-response","240","344844","0.0-5.0-1.50","1767","[""videos/fast_low_c15_teal_mirror.mov""]","j","response","false"
"","","","","","html-keyboard-response","241","345845","0.0-5.0-0.51","null","<div style=""font-size:60px;"">+</div>","null","fixation",""
"","","","","","video-keyboard-response","242","347297","0.0-5.0-1.51","1451","[""videos/slow_high_c1_teal_mirror.mov""]","f","response","false"
"","","","","","html-keyboard-response","243","347799","0.0-5.0-0.52","null","<div style=""font-size:60px;"">+</div>","null","fixation",""
"","","","","","video-keyboard-response","244","349246","0.0-5.0-1.52","1445","[""videos/fast_low_c17_purple.mov""]","j","response","false"
"","","","","","html-keyboard-response","245","349747","0.0-5.0-0.53","null","<div style=""font-size:60px;"">+</div>","null","fixation",""
"","","","","","video-keyboard-response","246","351044","0.0-5.0-1.53","1296","[""videos/med_med_c14_pink_mirror.mov""]","j","response","false"
"","","","","","html-keyboard-response","247","352046","0.0-5.0-0.54","null","<div style=""font-size:60px;"">+</div>","null","fixation",""
"","","","","","video-keyboard-response","248","354847","0.0-5.0-1.54","2800","[""videos/fast_med_c17_purple.mov""]","j","response","false"
"","","","","","html-keyboard-response","249","356909","0.0-5.0-2.54-0.54","2062","<p>You can take a quick break now if you need it.</p>
      <p>Press the spacebar to continue.</p>"," ","",""
"","","","","","html-keyboard-response","250","357410","0.0-5.0-0.55","null","<div style=""font-size:60px;"">+</div>","null","fixation",""
"","","","","","video-keyboard-response","251","359136","0.0-5.0-1.55","1725","[""videos/med_med_c1_teal.mov""]","f","response","false"
"","","","","","html-keyboard-response","252","359889","0.0-5.0-0.56","null","<div style=""font-size:60px;"">+</div>","null","fixation",""
"","","","","","video-keyboard-response","253","361217","0.0-5.0-1.56","1327","[""videos/med_med_c8_teal_mirror.mov""]","j","response","false"
"","","","","","html-keyboard-response","254","361969","0.0-5.0-0.57","null","<div style=""font-size:60px;"">+</div>","null","fixation",""
"","","","","","video-keyboard-response","255","363862","0.0-5.0-1.57","1891","[""videos/fast_med_c14_pink.mov""]","f","response","false"
"","","","","","html-keyboard-response","256","364863","0.0-5.0-0.58","null","<div style=""font-size:60px;"">+</div>","null","fixation",""
"","","","","","video-keyboard-response","257","365973","0.0-5.0-1.58","1108","[""videos/fast_high_c15_teal_mirror.mov""]","j","response","false"
"","","","","","html-keyboard-response","258","366474","0.0-5.0-0.59","null","<div style=""font-size:60px;"">+</div>","null","fixation",""
"","","","","","video-keyboard-response","259","368153","0.0-5.0-1.59","1677","[""videos/fast_low_c16_purple_mirror.mov""]","j","response","false"
"","","","","","html-keyboard-response","260","369155","0.0-5.0-0.60","null","<div style=""font-size:60px;"">+</div>","null","fixation",""
"","","","","","video-keyboard-response","261","370784","0.0-5.0-1.60","1627","[""videos/slow_med_c4_purple.mov""]","j","response","false"
"","","","","","html-keyboard-response","262","371786","0.0-5.0-0.61","null","<div style=""font-size:60px;"">+</div>","null","fixation",""
"","","","","","video-keyboard-response","263","373476","0.0-5.0-1.61","1689","[""videos/slow_low_c2_tan_mirror.mov""]","f","response","false"
"","","","","","html-keyboard-response","264","374479","0.0-5.0-0.62","null","<div style=""font-size:60px;"">+</div>","null","fixation",""
"","","","","","video-keyboard-response","265","375743","0.0-5.0-1.62","1262","[""videos/med_low_c16_purple.mov""]","j","response","false"
"","","","","","html-keyboard-response","266","376744","0.0-5.0-0.63","null","<div style=""font-size:60px;"">+</div>","null","fixation",""
"","","","","","video-keyboard-response","267","378255","0.0-5.0-1.63","1510","[""videos/fast_med_c11_purple_mirror.mov""]","f","response","false"
"","","","","","html-keyboard-response","268","379007","0.0-5.0-0.64","null","<div style=""font-size:60px;"">+</div>","null","fixation",""
"","","","","","video-keyboard-response","269","380305","0.0-5.0-1.64","1297","[""videos/slow_high_c2_tan.mov""]","f","response","false"
"","","","","","html-keyboard-response","270","381058","0.0-5.0-0.65","null","<div style=""font-size:60px;"">+</div>","null","fixation",""
"","","","","","video-keyboard-response","271","382532","0.0-5.0-1.65","1473","[""videos/slow_low_c3_pink.mov""]","f","response","false"
"","","","","","html-keyboard-response","272","383033","0.0-5.0-0.66","null","<div style=""font-size:60px;"">+</div>","null","fixation",""
"","","","","","video-keyboard-response","273","388307","0.0-5.0-1.66","5273","[""videos/med_high_c13_teal_mirror.mov""]","j","response","false"
"","","","","","html-keyboard-response","274","389310","0.0-5.0-0.67","null","<div style=""font-size:60px;"">+</div>","null","fixation",""
"","","","","","video-keyboard-response","275","392903","0.0-5.0-1.67","3592","[""videos/fast_med_c17_teal_mirror.mov""]","j","response","false"
"","","","","","html-keyboard-response","276","393655","0.0-5.0-0.68","null","<div style=""font-size:60px;"">+</div>","null","fixation",""
"","","","","","video-keyboard-response","277","395172","0.0-5.0-1.68","1515","[""videos/fast_high_c13_teal.mov""]","j","response","false"
"","","","","","html-keyboard-response","278","396173","0.0-5.0-0.69","null","<div style=""font-size:60px;"">+</div>","null","fixation",""
"","","","","","video-keyboard-response","279","397431","0.0-5.0-1.69","1257","[""videos/fast_med_c16_teal_mirror.mov""]","f","response","false"
"","","","","","html-keyboard-response","280","398183","0.0-5.0-0.70","null","<div style=""font-size:60px;"">+</div>","null","fixation",""
"","","","","","video-keyboard-response","281","399492","0.0-5.0-1.70","1308","[""videos/fast_low_c17_pink.mov""]","j","response","false"
"","","","","","html-keyboard-response","282","400244","0.0-5.0-0.71","null","<div style=""font-size:60px;"">+</div>","null","fixation",""
"","","","","","video-keyboard-response","283","401650","0.0-5.0-1.71","1404","[""videos/slow_low_c4_purple_mirror.mov""]","j","response","false"
"","","","","","html-keyboard-response","284","402151","0.0-5.0-0.72","null","<div style=""font-size:60px;"">+</div>","null","fixation",""
"","","","","","video-keyboard-response","285","403330","0.0-5.0-1.72","1177","[""videos/med_med_c4_teal.mov""]","f","response","false"
"","","","","","html-keyboard-response","286","404081","0.0-5.0-0.73","null","<div style=""font-size:60px;"">+</div>","null","fixation",""
"","","","","","video-keyboard-response","287","405547","0.0-5.0-1.73","1464","[""videos/fast_high_c11_tan.mov""]","f","response","false"
"","","","","","html-keyboard-response","288","406049","0.0-5.0-0.74","null","<div style=""font-size:60px;"">+</div>","null","fixation",""
"","","","","","video-keyboard-response","289","407324","0.0-5.0-1.74","1273","[""videos/slow_high_c1_pink.mov""]","f","response","false"
"","","","","","html-keyboard-response","290","408687","0.0-5.0-2.74-0.74","1363","<p>You can take a quick break now if you need it.</p>
      <p>Press the spacebar to continue.</p>"," ","",""
"","","","","","html-keyboard-response","291","409189","0.0-5.0-0.75","null","<div style=""font-size:60px;"">+</div>","null","fixation",""
"","","","","","video-keyboard-response","292","410666","0.0-5.0-1.75","1476","[""videos/fast_low_c5_tan_mirror.mov""]","f","response","false"
"","","","","","html-keyboard-response","293","411168","0.0-5.0-0.76","null","<div style=""font-size:60px;"">+</div>","null","fixation",""
"","","","","","video-keyboard-response","294","413216","0.0-5.0-1.76","2047","[""videos/med_high_c6_purple_mirror.mov""]","f","response","false"
"","","","","","html-keyboard-response","295","414218","0.0-5.0-0.77","null","<div style=""font-size:60px;"">+</div>","null","fixation",""
"","","","","","video-keyboard-response","296","415275","0.0-5.0-1.77","1057","[""videos/med_low_c16_tan_mirror.mov""]","j","response","false"
"","","","","","html-keyboard-response","297","416278","0.0-5.0-0.78","null","<div style=""font-size:60px;"">+</div>","null","fixation",""
"","","","","","video-keyboard-response","298","417914","0.0-5.0-1.78","1635","[""videos/med_med_c11_tan_mirror.mov""]","j","response","false"
"","","","","","html-keyboard-response","299","418415","0.0-5.0-0.79","null","<div style=""font-size:60px;"">+</div>","null","fixation",""
"","","","","","video-keyboard-response","300","419896","0.0-5.0-1.79","1479","[""videos/med_med_c9_teal_mirror.mov""]","j","response","false"
"","","","","","html-keyboard-response","301","420649","0.0-5.0-0.80","null","<div style=""font-size:60px;"">+</div>","null","fixation",""
"","","","","","video-keyboard-response","302","422139","0.0-5.0-1.80","1489","[""videos/slow_med_c7_pink.mov""]","j","response","false"
"","","","","","html-keyboard-response","303","423141","0.0-5.0-0.81","null","<div style=""font-size:60px;"">+</div>","null","fixation",""
"","","","","","video-keyboard-response","304","425150","0.0-5.0-1.81","2008","[""videos/fast_high_c17_teal.mov""]","f","response","false"
"","","","","","html-keyboard-response","305","426153","0.0-5.0-0.82","null","<div style=""font-size:60px;"">+</div>","null","fixation",""
"","","","","","video-keyboard-response","306","427542","0.0-5.0-1.82","1388","[""videos/med_low_c8_pink_mirror.mov""]","j","response","false"
"","","","","","html-keyboard-response","307","428043","0.0-5.0-0.83","null","<div style=""font-size:60px;"">+</div>","null","fixation",""
"","","","","","video-keyboard-response","308","429684","0.0-5.0-1.83","1640","[""videos/fast_med_c15_pink_mirror.mov""]","f","response","false"
"","","","","","html-keyboard-response","309","430186","0.0-5.0-0.84","null","<div style=""font-size:60px;"">+</div>","null","fixation",""
"","","","","","video-keyboard-response","310","431702","0.0-5.0-1.84","1515","[""videos/fast_low_c12_teal.mov""]","f","response","false"
"","","","","","html-keyboard-response","311","432204","0.0-5.0-0.85","null","<div style=""font-size:60px;"">+</div>","null","fixation",""
"","","","","","video-keyboard-response","312","433662","0.0-5.0-1.85","1457","[""videos/med_low_c12_tan.mov""]","j","response","false"
"","","","","","html-keyboard-response","313","434664","0.0-5.0-0.86","null","<div style=""font-size:60px;"">+</div>","null","fixation",""
"","","","","","video-keyboard-response","314","436034","0.0-5.0-1.86","1369","[""videos/med_med_c7_pink.mov""]","f","response","false"
"","","","","","html-keyboard-response","315","436536","0.0-5.0-0.87","null","<div style=""font-size:60px;"">+</div>","null","fixation",""
"","","","","","video-keyboard-response","316","437838","0.0-5.0-1.87","1300","[""videos/med_low_c12_teal_mirror.mov""]","j","response","false"
"","","","","","html-keyboard-response","317","438589","0.0-5.0-0.88","null","<div style=""font-size:60px;"">+</div>","null","fixation",""
"","","","","","video-keyboard-response","318","440498","0.0-5.0-1.88","1907","[""videos/fast_high_c12_tan_mirror.mov""]","j","response","false"
"","","","","","html-keyboard-response","319","441000","0.0-5.0-0.89","null","<div style=""font-size:60px;"">+</div>","null","fixation",""
"","","","","","video-keyboard-response","320","443970","0.0-5.0-1.89","2968","[""videos/fast_low_c16_teal.mov""]","j","response","false"
"","","","","","html-keyboard-response","321","444471","0.0-5.0-0.90","null","<div style=""font-size:60px;"">+</div>","null","fixation",""
"","","","","","video-keyboard-response","322","445795","0.0-5.0-1.90","1322","[""videos/slow_low_c2_teal.mov""]","f","response","false"
"","","","","","html-keyboard-response","323","446297","0.0-5.0-0.91","null","<div style=""font-size:60px;"">+</div>","null","fixation",""
"","","","","","video-keyboard-response","324","447548","0.0-5.0-1.91","1250","[""videos/slow_low_c2_purple_mirror.mov""]","f","response","false"
"","","","","","html-keyboard-response","325","448050","0.0-5.0-0.92","null","<div style=""font-size:60px;"">+</div>","null","fixation",""
"","","","","","video-keyboard-response","326","449404","0.0-5.0-1.92","1353","[""videos/med_high_c1_purple_mirror.mov""]","f","response","false"
"","","","","","html-keyboard-response","327","449906","0.0-5.0-0.93","null","<div style=""font-size:60px;"">+</div>","null","fixation",""
"","","","","","video-keyboard-response","328","451712","0.0-5.0-1.93","1804","[""videos/slow_low_c12_tan_mirror.mov""]","j","response","false"
"","","","","","html-keyboard-response","329","452463","0.0-5.0-0.94","null","<div style=""font-size:60px;"">+</div>","null","fixation",""
"","","","","","video-keyboard-response","330","455834","0.0-5.0-1.94","3369","[""videos/med_high_c6_tan.mov""]","j","response","false"
"","","","","","html-keyboard-response","331","457136","0.0-5.0-2.94-0.94","1302","<p>You can take a quick break now if you need it.</p>
      <p>Press the spacebar to continue.</p>"," ","",""
"","","","","","html-keyboard-response","332","458139","0.0-5.0-0.95","null","<div style=""font-size:60px;"">+</div>","null","fixation",""
"","","","","","video-keyboard-response","333","459491","0.0-5.0-1.95","1351","[""videos/fast_low_c5_purple.mov""]","f","response","false"
"","","","","","html-keyboard-response","334","460492","0.0-5.0-0.96","null","<div style=""font-size:60px;"">+</div>","null","fixation",""
"","","","","","video-keyboard-response","335","461795","0.0-5.0-1.96","1301","[""videos/fast_high_c4_purple_mirror.mov""]","f","response","false"
"","","","","","html-keyboard-response","336","462796","0.0-5.0-0.97","null","<div style=""font-size:60px;"">+</div>","null","fixation",""
"","","","","","video-keyboard-response","337","464017","0.0-5.0-1.97","1220","[""videos/fast_low_c12_purple_mirror.mov""]","f","response","false"
"","","","","","html-keyboard-response","338","464769","0.0-5.0-0.98","null","<div style=""font-size:60px;"">+</div>","null","fixation",""
"","","","","","video-keyboard-response","339","466422","0.0-5.0-1.98","1651","[""videos/med_high_c10_purple_mirror.mov""]","j","response","false"
"","","","","","html-keyboard-response","340","467173","0.0-5.0-0.99","null","<div style=""font-size:60px;"">+</div>","null","fixation",""
"","","","","","video-keyboard-response","341","468563","0.0-5.0-1.99","1388","[""videos/slow_low_c1_purple.mov""]","f","response","false"
"","","","","","html-keyboard-response","342","469315","0.0-5.0-0.100","null","<div style=""font-size:60px;"">+</div>","null","fixation",""
"","","","","","video-keyboard-response","343","470795","0.0-5.0-1.100","1478","[""videos/fast_low_c14_purple_mirror.mov""]","f","response","false"
"","","","","","html-keyboard-response","344","471797","0.0-5.0-0.101","null","<div style=""font-size:60px;"">+</div>","null","fixation",""
"","","","","","video-keyboard-response","345","473390","0.0-5.0-1.101","1591","[""videos/slow_med_c10_tan.mov""]","j","response","false"
"","","","","","html-keyboard-response","346","474142","0.0-5.0-0.102","null","<div style=""font-size:60px;"">+</div>","null","fixation",""
"","","","","","video-keyboard-response","347","475714","0.0-5.0-1.102","1570","[""videos/fast_high_c17_tan_mirror.mov""]","j","response","false"
"","","","","","html-keyboard-response","348","476214","0.0-5.0-0.103","null","<div style=""font-size:60px;"">+</div>","null","fixation",""
"","","","","","video-keyboard-response","349","477693","0.0-5.0-1.103","1477","[""videos/slow_low_c5_tan_mirror.mov""]","f","response","false"
"","","","","","html-keyboard-response","350","478194","0.0-5.0-0.104","null","<div style=""font-size:60px;"">+</div>","null","fixation",""
"","","","","","video-keyboard-response","351","479727","0.0-5.0-1.104","1531","[""videos/slow_low_c5_pink.mov""]","j","response","false"
"","","","","","html-keyboard-response","352","480228","0.0-5.0-0.105","null","<div style=""font-size:60px;"">+</div>","null","fixation",""
"","","","","","video-keyboard-response","353","482880","0.0-5.0-1.105","2651","[""videos/fast_med_c15_tan_mirror.mov""]","j","response","false"
"","","","","","html-keyboard-response","354","483882","0.0-5.0-0.106","null","<div style=""font-size:60px;"">+</div>","null","fixation",""
"","","","","","video-keyboard-response","355","485562","0.0-5.0-1.106","1679","[""videos/slow_med_c1_purple_mirror.mov""]","f","response","false"
"","","","","","html-keyboard-response","356","486064","0.0-5.0-0.107","null","<div style=""font-size:60px;"">+</div>","null","fixation",""
"","","","","","video-keyboard-response","357","487367","0.0-5.0-1.107","1301","[""videos/fast_high_c11_teal_mirror.mov""]","f","response","false"
"","","","","","html-keyboard-response","358","488368","0.0-5.0-0.108","null","<div style=""font-size:60px;"">+</div>","null","fixation",""
"","","","","","video-keyboard-response","359","489760","0.0-5.0-1.108","1391","[""videos/med_med_c6_teal.mov""]","f","response","false"
"","","","","","html-keyboard-response","360","490512","0.0-5.0-0.109","null","<div style=""font-size:60px;"">+</div>","null","fixation",""
"","","","","","video-keyboard-response","361","491583","0.0-5.0-1.109","1069","[""videos/slow_high_c13_pink.mov""]","j","response","false"
"","","","","","html-keyboard-response","362","492585","0.0-5.0-0.110","null","<div style=""font-size:60px;"">+</div>","null","fixation",""
"","","","","","video-keyboard-response","363","494056","0.0-5.0-1.110","1470","[""videos/med_low_c2_tan.mov""]","f","response","false"
"","","","","","html-keyboard-response","364","495057","0.0-5.0-0.111","null","<div style=""font-size:60px;"">+</div>","null","fixation",""
"","","","","","video-keyboard-response","365","496764","0.0-5.0-1.111","1705","[""videos/slow_low_c1_teal_mirror.mov""]","f","response","false"
"","","","","","html-keyboard-response","366","497266","0.0-5.0-0.112","null","<div style=""font-size:60px;"">+</div>","null","fixation",""
"","","","","","video-keyboard-response","367","498687","0.0-5.0-1.112","1420","[""videos/med_med_c1_pink_mirror.mov""]","f","response","false"
"","","","","","html-keyboard-response","368","499188","0.0-5.0-0.113","null","<div style=""font-size:60px;"">+</div>","null","fixation",""
"","","","","","video-keyboard-response","369","500478","0.0-5.0-1.113","1289","[""videos/fast_high_c10_pink_mirror.mov""]","f","response","false"
"","","","","","html-keyboard-response","370","500979","0.0-5.0-0.114","null","<div style=""font-size:60px;"">+</div>","null","fixation",""
"","","","","","video-keyboard-response","371","502177","0.0-5.0-1.114","1196","[""videos/med_high_c7_tan.mov""]","f","response","false"
"","","","","","html-keyboard-response","372","503365","0.0-5.0-2.114-0.114","1188","<p>You can take a quick break now if you need it.</p>
      <p>Press the spacebar to continue.</p>"," ","",""
"","","","","","html-keyboard-response","373","504118","0.0-5.0-0.115","null","<div style=""font-size:60px;"">+</div>","null","fixation",""
"","","","","","video-keyboard-response","374","505418","0.0-5.0-1.115","1299","[""videos/med_med_c7_teal_mirror.mov""]","f","response","false"
"","","","","","html-keyboard-response","375","506420","0.0-5.0-0.116","null","<div style=""font-size:60px;"">+</div>","null","fixation",""
"","","","","","video-keyboard-response","376","508084","0.0-5.0-1.116","1663","[""videos/med_low_c10_pink.mov""]","j","response","false"
"","","","","","html-keyboard-response","377","508836","0.0-5.0-0.117","null","<div style=""font-size:60px;"">+</div>","null","fixation",""
"","","","","","video-keyboard-response","378","509796","0.0-5.0-1.117","958","[""videos/slow_med_c2_purple.mov""]","f","response","false"
"","","","","","html-keyboard-response","379","510547","0.0-5.0-0.118","null","<div style=""font-size:60px;"">+</div>","null","fixation",""
"","","","","","video-keyboard-response","380","511533","0.0-5.0-1.118","985","[""videos/slow_high_c2_teal_mirror.mov""]","f","response","false"
"","","","","","html-keyboard-response","381","512535","0.0-5.0-0.119","null","<div style=""font-size:60px;"">+</div>","null","fixation",""
"","","","","","video-keyboard-response","382","513583","0.0-5.0-1.119","1047","[""videos/slow_med_c2_tan_mirror.mov""]","f","response","false"
"","","","","","html-keyboard-response","383","514335","0.0-5.0-0.120","null","<div style=""font-size:60px;"">+</div>","null","fixation",""
"","","","","","video-keyboard-response","384","515364","0.0-5.0-1.120","1028","[""videos/slow_high_c1_tan.mov""]","f","response","false"
"","","","","","html-keyboard-response","385","516116","0.0-5.0-0.121","null","<div style=""font-size:60px;"">+</div>","null","fixation",""
"","","","","","video-keyboard-response","386","517063","0.0-5.0-1.121","946","[""videos/slow_low_c3_teal.mov""]","f","response","false"
"","","","","","html-keyboard-response","387","517565","0.0-5.0-0.122","null","<div style=""font-size:60px;"">+</div>","null","fixation",""
"","","","","","video-keyboard-response","388","518688","0.0-5.0-1.122","1122","[""videos/slow_high_c1_purple_mirror.mov""]","f","response","false"
"","","","","","html-keyboard-response","389","519190","0.0-5.0-0.123","null","<div style=""font-size:60px;"">+</div>","null","fixation",""
"","","","","","video-keyboard-response","390","520250","0.0-5.0-1.123","1058","[""videos/med_low_c7_teal.mov""]","f","response","false"
"","","","","","html-keyboard-response","391","521002","0.0-5.0-0.124","null","<div style=""font-size:60px;"">+</div>","null","fixation",""
"","","","","","video-keyboard-response","392","522755","0.0-5.0-1.124","1751","[""videos/fast_low_c16_tan_mirror.mov""]","j","response","false"
"","","","","","html-keyboard-response","393","523507","0.0-5.0-0.125","null","<div style=""font-size:60px;"">+</div>","null","fixation",""
"","","","","","video-keyboard-response","394","524918","0.0-5.0-1.125","1410","[""videos/fast_high_c13_tan_mirror.mov""]","f","response","false"
"","","","","","html-keyboard-response","395","525920","0.0-5.0-0.126","null","<div style=""font-size:60px;"">+</div>","null","fixation",""
"","","","","","video-keyboard-response","396","527110","0.0-5.0-1.126","1189","[""videos/fast_low_c17_teal_mirror.mov""]","j","response","false"
"","","","","","html-keyboard-response","397","528112","0.0-5.0-0.127","null","<div style=""font-size:60px;"">+</div>","null","fixation",""
"","","","","","video-keyboard-response","398","529238","0.0-5.0-1.127","1124","[""videos/med_high_c8_pink_mirror.mov""]","f","response","false"
"","","","","","html-keyboard-response","399","529989","0.0-5.0-0.128","null","<div style=""font-size:60px;"">+</div>","null","fixation",""
"","","","","","video-keyboard-response","400","531158","0.0-5.0-1.128","1168","[""videos/slow_med_c7_tan_mirror.mov""]","f","response","false"
"","","","","","html-keyboard-response","401","531660","0.0-5.0-0.129","null","<div style=""font-size:60px;"">+</div>","null","fixation",""
"","","","","","video-keyboard-response","402","533042","0.0-5.0-1.129","1381","[""videos/fast_high_c4_pink.mov""]","f","response","false"
"","","","","","html-keyboard-response","403","533794","0.0-5.0-0.130","null","<div style=""font-size:60px;"">+</div>","null","fixation",""
"","","","","","video-keyboard-response","404","534923","0.0-5.0-1.130","1127","[""videos/med_med_c8_purple.mov""]","f","response","false"
"","","","","","html-keyboard-response","405","535424","0.0-5.0-0.131","null","<div style=""font-size:60px;"">+</div>","null","fixation",""
"","","","","","video-keyboard-response","406","537965","0.0-5.0-1.131","2539","[""videos/fast_med_c16_pink.mov""]","j","response","false"
"","","","","","html-keyboard-response","407","538717","0.0-5.0-0.132","null","<div style=""font-size:60px;"">+</div>","null","fixation",""
"","","","","","video-keyboard-response","408","540363","0.0-5.0-1.132","1645","[""videos/fast_high_c10_tan.mov""]","f","response","false"
"","","","","","html-keyboard-response","409","540864","0.0-5.0-0.133","null","<div style=""font-size:60px;"">+</div>","null","fixation",""
"","","","","","video-keyboard-response","410","542616","0.0-5.0-1.133","1750","[""videos/slow_high_c3_teal_mirror.mov""]","f","response","false"
"","","","","","html-keyboard-response","411","543618","0.0-5.0-0.134","null","<div style=""font-size:60px;"">+</div>","null","fixation",""
"","","","","","video-keyboard-response","412","544931","0.0-5.0-1.134","1311","[""videos/med_high_c3_tan.mov""]","f","response","false"
"","","","","","html-keyboard-response","413","546147","0.0-5.0-2.134-0.134","1216","<p>You can take a quick break now if you need it.</p>
      <p>Press the spacebar to continue.</p>"," ","",""
"","","","","","html-keyboard-response","414","546898","0.0-5.0-0.135","null","<div style=""font-size:60px;"">+</div>","null","fixation",""
"","","","","","video-keyboard-response","415","549517","0.0-5.0-1.135","2617","[""videos/slow_high_c4_purple_mirror.mov""]","f","response","false"
"","","","","","html-keyboard-response","416","550269","0.0-5.0-0.136","null","<div style=""font-size:60px;"">+</div>","null","fixation",""
"","","","","","video-keyboard-response","417","551764","0.0-5.0-1.136","1494","[""videos/med_high_c5_purple.mov""]","f","response","false"
"","","","","","html-keyboard-response","418","552765","0.0-5.0-0.137","null","<div style=""font-size:60px;"">+</div>","null","fixation",""
"","","","","","video-keyboard-response","419","554197","0.0-5.0-1.137","1431","[""videos/slow_low_c3_tan_mirror.mov""]","f","response","false"
"","","","","","html-keyboard-response","420","555200","0.0-5.0-0.138","null","<div style=""font-size:60px;"">+</div>","null","fixation",""
"","","","","","video-keyboard-response","421","556531","0.0-5.0-1.138","1330","[""videos/fast_med_c13_pink.mov""]","f","response","false"
"","","","","","html-keyboard-response","422","557033","0.0-5.0-0.139","null","<div style=""font-size:60px;"">+</div>","null","fixation",""
"","","","","","video-keyboard-response","423","558639","0.0-5.0-1.139","1605","[""videos/slow_high_c6_tan.mov""]","j","response","false"
"","","","","","html-keyboard-response","424","559391","0.0-5.0-0.140","null","<div style=""font-size:60px;"">+</div>","null","fixation",""
"","","","","","video-keyboard-response","425","560961","0.0-5.0-1.140","1568","[""videos/slow_med_c1_pink.mov""]","f","response","false"
"","","","","","html-keyboard-response","426","561713","0.0-5.0-0.141","null","<div style=""font-size:60px;"">+</div>","null","fixation",""
"","","","","","video-keyboard-response","427","563450","0.0-5.0-1.141","1735","[""videos/med_high_c10_tan.mov""]","j","response","false"
"","","","","","html-keyboard-response","428","563951","0.0-5.0-0.142","null","<div style=""font-size:60px;"">+</div>","null","fixation",""
"","","","","","video-keyboard-response","429","565126","0.0-5.0-1.142","1174","[""videos/slow_high_c2_purple_mirror.mov""]","f","response","false"
"","","","","","html-keyboard-response","430","565628","0.0-5.0-0.143","null","<div style=""font-size:60px;"">+</div>","null","fixation",""
"","","","","","video-keyboard-response","431","567364","0.0-5.0-1.143","1734","[""videos/med_low_c10_teal_mirror.mov""]","j","response","false"
"","","","","","html-keyboard-response","432","570758","0.0-6.0","3393","<p>You can take a quick break now if you need it.</p>
      <p>Press the spacebar to continue.</p>"," ","",""
"","","","","","html-keyboard-response","433","571258","0.0-7.0-0.0","null","<div style=""font-size:60px;"">+</div>","null","fixation",""
"","","","","","video-keyboard-response","434","572381","0.0-7.0-1.0","1122","[""videos/slow_low_c3_white.mov""]","f","response","false"
"","","","","","html-keyboard-response","435","573134","0.0-7.0-0.1","null","<div style=""font-size:60px;"">+</div>","null","fixation",""
"","","","","","video-keyboard-response","436","574582","0.0-7.0-1.1","1447","[""videos/fast_high_c13_white_mirror.mov""]","j","response","false"
"","","","","","html-keyboard-response","437","575084","0.0-7.0-0.2","null","<div style=""font-size:60px;"">+</div>","null","fixation",""
"","","","","","video-keyboard-response","438","576783","0.0-7.0-1.2","1698","[""videos/med_low_c10_white.mov""]","j","response","false"
"","","","","","html-keyboard-response","439","577785","0.0-7.0-0.3","null","<div style=""font-size:60px;"">+</div>","null","fixation",""
"","","","","","video-keyboard-response","440","578898","0.0-7.0-1.3","1112","[""videos/med_low_c2_white_mirror.mov""]","f","response","false"
"","","","","","html-keyboard-response","441","579399","0.0-7.0-0.4","null","<div style=""font-size:60px;"">+</div>","null","fixation",""
"","","","","","video-keyboard-response","442","580412","0.0-7.0-1.4","1012","[""videos/fast_med_c6_white.mov""]","f","response","false"
"","","","","","html-keyboard-response","443","581414","0.0-7.0-0.5","null","<div style=""font-size:60px;"">+</div>","null","fixation",""
"","","","","","video-keyboard-response","444","582932","0.0-7.0-1.5","1516","[""videos/fast_low_c16_white_mirror.mov""]","f","response","false"
"","","","","","html-keyboard-response","445","583433","0.0-7.0-0.6","null","<div style=""font-size:60px;"">+</div>","null","fixation",""
"","","","","","video-keyboard-response","446","584669","0.0-7.0-1.6","1235","[""videos/med_med_c9_white_mirror.mov""]","f","response","false"
"","","","","","html-keyboard-response","447","585172","0.0-7.0-0.7","null","<div style=""font-size:60px;"">+</div>","null","fixation",""
"","","","","","video-keyboard-response","448","586580","0.0-7.0-1.7","1407","[""videos/fast_low_c17_white.mov""]","j","response","false"
"","","","","","html-keyboard-response","449","587582","0.0-7.0-0.8","null","<div style=""font-size:60px;"">+</div>","null","fixation",""
"","","","","","video-keyboard-response","450","588636","0.0-7.0-1.8","1052","[""videos/slow_med_c2_white.mov""]","f","response","false"
"","","","","","html-keyboard-response","451","589137","0.0-7.0-0.9","null","<div style=""font-size:60px;"">+</div>","null","fixation",""
"","","","","","video-keyboard-response","452","590048","0.0-7.0-1.9","909","[""videos/slow_high_c3_white.mov""]","f","response","false"
"","","","","","html-keyboard-response","453","590800","0.0-7.0-0.10","null","<div style=""font-size:60px;"">+</div>","null","fixation",""
"","","","","","video-keyboard-response","454","591825","0.0-7.0-1.10","1023","[""videos/slow_med_c5_white.mov""]","f","response","false"
"","","","","","html-keyboard-response","455","593295","0.0-7.0-2.10-0.10","1470","<p>You can take a quick break now if you need it.</p>
      <p>Press the spacebar to continue.</p>"," ","",""
"","","","","","html-keyboard-response","456","594046","0.0-7.0-0.11","null","<div style=""font-size:60px;"">+</div>","null","fixation",""
"","","","","","video-keyboard-response","457","595424","0.0-7.0-1.11","1376","[""videos/slow_med_c10_white.mov""]","j","response","false"
"","","","","","html-keyboard-response","458","596427","0.0-7.0-0.12","null","<div style=""font-size:60px;"">+</div>","null","fixation",""
"","","","","","video-keyboard-response","459","597606","0.0-7.0-1.12","1178","[""videos/slow_med_c3_white_mirror.mov""]","f","response","false"
"","","","","","html-keyboard-response","460","598608","0.0-7.0-0.13","null","<div style=""font-size:60px;"">+</div>","null","fixation",""
"","","","","","video-keyboard-response","461","599426","0.0-7.0-1.13","816","[""videos/slow_high_c13_white_mirror.mov""]","j","response","false"
"","","","","","html-keyboard-response","462","600427","0.0-7.0-0.14","null","<div style=""font-size:60px;"">+</div>","null","fixation",""
"","","","","","video-keyboard-response","463","601704","0.0-7.0-1.14","1276","[""videos/fast_med_c13_white_mirror.mov""]","f","response","false"
"","","","","","html-keyboard-response","464","602456","0.0-7.0-0.15","null","<div style=""font-size:60px;"">+</div>","null","fixation",""
"","","","","","video-keyboard-response","465","604060","0.0-7.0-1.15","1603","[""videos/fast_high_c4_white_mirror.mov""]","f","response","false"
"","","","","","html-keyboard-response","466","605061","0.0-7.0-0.16","null","<div style=""font-size:60px;"">+</div>","null","fixation",""
"","","","","","video-keyboard-response","467","606375","0.0-7.0-1.16","1314","[""videos/med_med_c7_white_mirror.mov""]","f","response","false"
"","","","","","html-keyboard-response","468","606877","0.0-7.0-0.17","null","<div style=""font-size:60px;"">+</div>","null","fixation",""
"","","","","","video-keyboard-response","469","607751","0.0-7.0-1.17","873","[""videos/slow_high_c4_white_mirror.mov""]","f","response","false"
"","","","","","html-keyboard-response","470","608251","0.0-7.0-0.18","null","<div style=""font-size:60px;"">+</div>","null","fixation",""
"","","","","","video-keyboard-response","471","609280","0.0-7.0-1.18","1027","[""videos/fast_high_c15_white.mov""]","j","response","false"
"","","","","","html-keyboard-response","472","609782","0.0-7.0-0.19","null","<div style=""font-size:60px;"">+</div>","null","fixation",""
"","","","","","video-keyboard-response","473","610878","0.0-7.0-1.19","1094","[""videos/fast_low_c14_white_mirror.mov""]","f","response","false"
"","","","","","html-keyboard-response","474","611880","0.0-7.0-0.20","null","<div style=""font-size:60px;"">+</div>","null","fixation",""
"","","","","","video-keyboard-response","475","613856","0.0-7.0-1.20","1974","[""videos/slow_med_c7_white_mirror.mov""]","j","response","false"
"","","","","","html-keyboard-response","476","614357","0.0-7.0-0.21","null","<div style=""font-size:60px;"">+</div>","null","fixation",""
"","","","","","video-keyboard-response","477","615536","0.0-7.0-1.21","1177","[""videos/fast_low_c15_white_mirror.mov""]","j","response","false"
"","","","","","html-keyboard-response","478","616038","0.0-7.0-0.22","null","<div style=""font-size:60px;"">+</div>","null","fixation",""
"","","","","","video-keyboard-response","479","617633","0.0-7.0-1.22","1594","[""videos/med_med_c1_white_mirror.mov""]","f","response","false"
"","","","","","html-keyboard-response","480","618135","0.0-7.0-0.23","null","<div style=""font-size:60px;"">+</div>","null","fixation",""
"","","","","","video-keyboard-response","481","619367","0.0-7.0-1.23","1231","[""videos/med_low_c7_white_mirror.mov""]","f","response","false"
"","","","","","html-keyboard-response","482","620368","0.0-7.0-0.24","null","<div style=""font-size:60px;"">+</div>","null","fixation",""
"","","","","","video-keyboard-response","483","621651","0.0-7.0-1.24","1282","[""videos/fast_low_c12_white.mov""]","f","response","false"
"","","","","","html-keyboard-response","484","622402","0.0-7.0-0.25","null","<div style=""font-size:60px;"">+</div>","null","fixation",""
"","","","","","video-keyboard-response","485","623456","0.0-7.0-1.25","1053","[""videos/med_high_c10_white.mov""]","f","response","false"
"","","","","","html-keyboard-response","486","623958","0.0-7.0-0.26","null","<div style=""font-size:60px;"">+</div>","null","fixation",""
"","","","","","video-keyboard-response","487","625130","0.0-7.0-1.26","1171","[""videos/med_low_c16_white.mov""]","j","response","false"
"","","","","","html-keyboard-response","488","625631","0.0-7.0-0.27","null","<div style=""font-size:60px;"">+</div>","null","fixation",""
"","","","","","video-keyboard-response","489","626860","0.0-7.0-1.27","1227","[""videos/fast_med_c11_white_mirror.mov""]","j","response","false"
"","","","","","html-keyboard-response","490","627860","0.0-7.0-0.28","null","<div style=""font-size:60px;"">+</div>","null","fixation",""
"","","","","","video-keyboard-response","491","629268","0.0-7.0-1.28","1406","[""videos/med_high_c8_white_mirror.mov""]","j","response","false"
"","","","","","html-keyboard-response","492","630268","0.0-7.0-0.29","null","<div style=""font-size:60px;"">+</div>","null","fixation",""
"","","","","","video-keyboard-response","493","631715","0.0-7.0-1.29","1446","[""videos/med_low_c9_white_mirror.mov""]","j","response","false"
"","","","","","html-keyboard-response","494","632717","0.0-7.0-0.30","null","<div style=""font-size:60px;"">+</div>","null","fixation",""
"","","","","","video-keyboard-response","495","633531","0.0-7.0-1.30","813","[""videos/fast_high_c10_white_mirror.mov""]","j","response","false"
"","","","","","html-keyboard-response","496","634723","0.0-7.0-2.30-0.30","1192","<p>You can take a quick break now if you need it.</p>
      <p>Press the spacebar to continue.</p>"," ","",""
"","","","","","html-keyboard-response","497","635225","0.0-7.0-0.31","null","<div style=""font-size:60px;"">+</div>","null","fixation",""
"","","","","","video-keyboard-response","498","636557","0.0-7.0-1.31","1330","[""videos/slow_low_c1_white.mov""]","f","response","false"
"","","","","","html-keyboard-response","499","637559","0.0-7.0-0.32","null","<div style=""font-size:60px;"">+</div>","null","fixation",""
"","","","","","video-keyboard-response","500","638277","0.0-7.0-1.32","716","[""videos/fast_high_c8_white.mov""]","f","response","false"
"","","","","","html-keyboard-response","501","638779","0.0-7.0-0.33","null","<div style=""font-size:60px;"">+</div>","null","fixation",""
"","","","","","video-keyboard-response","502","644257","0.0-7.0-1.33","5476","[""videos/slow_med_c4_white.mov""]","j","response","false"
"","","","","","html-keyboard-response","503","645009","0.0-7.0-0.34","null","<div style=""font-size:60px;"">+</div>","null","fixation",""
"","","","","","video-keyboard-response","504","646131","0.0-7.0-1.34","1120","[""videos/med_high_c6_white_mirror.mov""]","f","response","false"
"","","","","","html-keyboard-response","505","646631","0.0-7.0-0.35","null","<div style=""font-size:60px;"">+</div>","null","fixation",""
"","","","","","video-keyboard-response","506","648591","0.0-7.0-1.35","1958","[""videos/fast_med_c15_white.mov""]","j","response","false"
"","","","","","html-keyboard-response","507","649343","0.0-7.0-0.36","null","<div style=""font-size:60px;"">+</div>","null","fixation",""
"","","","","","video-keyboard-response","508","650608","0.0-7.0-1.36","1263","[""videos/med_high_c13_white.mov""]","f","response","false"
"","","","","","html-keyboard-response","509","651610","0.0-7.0-0.37","null","<div style=""font-size:60px;"">+</div>","null","fixation",""
"","","","","","video-keyboard-response","510","654274","0.0-7.0-1.37","2663","[""videos/med_low_c8_white_mirror.mov""]","f","response","false"
"","","","","","html-keyboard-response","511","654776","0.0-7.0-0.38","null","<div style=""font-size:60px;"">+</div>","null","fixation",""
"","","","","","video-keyboard-response","512","655953","0.0-7.0-1.38","1176","[""videos/fast_high_c12_white.mov""]","j","response","false"
"","","","","","html-keyboard-response","513","656955","0.0-7.0-0.39","null","<div style=""font-size:60px;"">+</div>","null","fixation",""
"","","","","","video-keyboard-response","514","658447","0.0-7.0-1.39","1490","[""videos/med_med_c6_white.mov""]","f","response","false"
"","","","","","html-keyboard-response","515","658948","0.0-7.0-0.40","null","<div style=""font-size:60px;"">+</div>","null","fixation",""
"","","","","","video-keyboard-response","516","660071","0.0-7.0-1.40","1121","[""videos/slow_high_c2_white.mov""]","f","response","false"
"","","","","","html-keyboard-response","517","660823","0.0-7.0-0.41","null","<div style=""font-size:60px;"">+</div>","null","fixation",""
"","","","","","video-keyboard-response","518","661563","0.0-7.0-1.41","738","[""videos/med_med_c8_white.mov""]","f","response","false"
"","","","","","html-keyboard-response","519","662565","0.0-7.0-0.42","null","<div style=""font-size:60px;"">+</div>","null","fixation",""
"","","","","","video-keyboard-response","520","663503","0.0-7.0-1.42","937","[""videos/med_med_c11_white.mov""]","j","response","false"
"","","","","","html-keyboard-response","521","664255","0.0-7.0-0.43","null","<div style=""font-size:60px;"">+</div>","null","fixation",""
"","","","","","video-keyboard-response","522","665260","0.0-7.0-1.43","1003","[""videos/med_low_c5_white.mov""]","f","response","false"
"","","","","","html-keyboard-response","523","665761","0.0-7.0-0.44","null","<div style=""font-size:60px;"">+</div>","null","fixation",""
"","","","","","video-keyboard-response","524","666928","0.0-7.0-1.44","1165","[""videos/slow_low_c7_white.mov""]","j","response","false"
"","","","","","html-keyboard-response","525","667929","0.0-7.0-0.45","null","<div style=""font-size:60px;"">+</div>","null","fixation",""
"","","","","","video-keyboard-response","526","669077","0.0-7.0-1.45","1146","[""videos/med_high_c5_white.mov""]","f","response","false"
"","","","","","html-keyboard-response","527","669828","0.0-7.0-0.46","null","<div style=""font-size:60px;"">+</div>","null","fixation",""
"","","","","","video-keyboard-response","528","670709","0.0-7.0-1.46","879","[""videos/med_med_c14_white.mov""]","j","response","false"
"","","","","","html-keyboard-response","529","671461","0.0-7.0-0.47","null","<div style=""font-size:60px;"">+</div>","null","fixation",""
"","","","","","video-keyboard-response","530","672564","0.0-7.0-1.47","1102","[""videos/slow_high_c1_white_mirror.mov""]","f","response","false"
"","","","","","html-keyboard-response","531","673567","0.0-7.0-0.48","null","<div style=""font-size:60px;"">+</div>","null","fixation",""
"","","","","","video-keyboard-response","532","674572","0.0-7.0-1.48","1004","[""videos/med_med_c4_white_mirror.mov""]","f","response","false"
"","","","","","html-keyboard-response","533","675074","0.0-7.0-0.49","null","<div style=""font-size:60px;"">+</div>","null","fixation",""
"","","","","","video-keyboard-response","534","676605","0.0-7.0-1.49","1530","[""videos/fast_high_c17_white_mirror.mov""]","f","response","false"
"","","","","","html-keyboard-response","535","677607","0.0-7.0-0.50","null","<div style=""font-size:60px;"">+</div>","null","fixation",""
"","","","","","video-keyboard-response","536","678857","0.0-7.0-1.50","1249","[""videos/fast_med_c17_white.mov""]","f","response","false"
"","","","","","html-keyboard-response","537","679931","0.0-7.0-2.50-0.50","1073","<p>You can take a quick break now if you need it.</p>
      <p>Press the spacebar to continue.</p>"," ","",""
"","","","","","html-keyboard-response","538","680933","0.0-7.0-0.51","null","<div style=""font-size:60px;"">+</div>","null","fixation",""
"","","","","","video-keyboard-response","539","681811","0.0-7.0-1.51","876","[""videos/slow_low_c2_white_mirror.mov""]","f","response","false"
"","","","","","html-keyboard-response","540","682563","0.0-7.0-0.52","null","<div style=""font-size:60px;"">+</div>","null","fixation",""
"","","","","","video-keyboard-response","541","683532","0.0-7.0-1.52","967","[""videos/slow_low_c4_white_mirror.mov""]","f","response","false"
"","","","","","html-keyboard-response","542","684533","0.0-7.0-0.53","null","<div style=""font-size:60px;"">+</div>","null","fixation",""
"","","","","","video-keyboard-response","543","685589","0.0-7.0-1.53","1055","[""videos/slow_med_c1_white_mirror.mov""]","f","response","false"
"","","","","","html-keyboard-response","544","686342","0.0-7.0-0.54","null","<div style=""font-size:60px;"">+</div>","null","fixation",""
"","","","","","video-keyboard-response","545","687556","0.0-7.0-1.54","1213","[""videos/slow_low_c12_white.mov""]","j","response","false"
"","","","","","html-keyboard-response","546","688057","0.0-7.0-0.55","null","<div style=""font-size:60px;"">+</div>","null","fixation",""
"","","","","","video-keyboard-response","547","688984","0.0-7.0-1.55","926","[""videos/fast_med_c14_white_mirror.mov""]","f","response","false"
"","","","","","html-keyboard-response","548","689736","0.0-7.0-0.56","null","<div style=""font-size:60px;"">+</div>","null","fixation",""
"","","","","","video-keyboard-response","549","690612","0.0-7.0-1.56","875","[""videos/slow_low_c5_white_mirror.mov""]","f","response","false"
"","","","","","html-keyboard-response","550","691614","0.0-7.0-0.57","null","<div style=""font-size:60px;"">+</div>","null","fixation",""
"","","","","","video-keyboard-response","551","692630","0.0-7.0-1.57","1014","[""videos/fast_high_c11_white.mov""]","f","response","false"
"","","","","","html-keyboard-response","552","693131","0.0-7.0-0.58","null","<div style=""font-size:60px;"">+</div>","null","fixation",""
"","","","","","video-keyboard-response","553","694323","0.0-7.0-1.58","1190","[""videos/slow_high_c6_white.mov""]","f","response","false"
"","","","","","html-keyboard-response","554","695075","0.0-7.0-0.59","null","<div style=""font-size:60px;"">+</div>","null","fixation",""
"","","","","","video-keyboard-response","555","696146","0.0-7.0-1.59","1070","[""videos/med_high_c3_white_mirror.mov""]","j","response","false"
"","","","","","html-keyboard-response","556","696898","0.0-7.0-0.60","null","<div style=""font-size:60px;"">+</div>","null","fixation",""
"","","","","","video-keyboard-response","557","698581","0.0-7.0-1.60","1681","[""videos/med_high_c7_white_mirror.mov""]","f","response","false"
"","","","","","html-keyboard-response","558","699082","0.0-7.0-0.61","null","<div style=""font-size:60px;"">+</div>","null","fixation",""
"","","","","","video-keyboard-response","559","703384","0.0-7.0-1.61","4300","[""videos/med_low_c12_white.mov""]","j","response","false"
"","","","","","html-keyboard-response","560","703886","0.0-7.0-0.62","null","<div style=""font-size:60px;"">+</div>","null","fixation",""
"","","","","","video-keyboard-response","561","705091","0.0-7.0-1.62","1204","[""videos/fast_low_c5_white.mov""]","f","response","false"
"","","","","","html-keyboard-response","562","705844","0.0-7.0-0.63","null","<div style=""font-size:60px;"">+</div>","null","fixation",""
"","","","","","video-keyboard-response","563","707016","0.0-7.0-1.63","1172","[""videos/med_high_c1_white.mov""]","f","response","false"
"","","","","","html-keyboard-response","564","707517","0.0-7.0-0.64","null","<div style=""font-size:60px;"">+</div>","null","fixation",""
"","","","","","video-keyboard-response","565","708621","0.0-7.0-1.64","1102","[""videos/fast_med_c16_white.mov""]","f","response","false"
"","","","","","html-keyboard-response","566","711977","0.0-8.0","3355","<p>Thank you for completing the experiment.</p>"," ","",""
