"success","timeout","failed_images","failed_audio","failed_video","trial_type","trial_index","time_elapsed","internal_node_id","rt","stimulus","response","task","test_trial"
"true","false","[]","[]","[]","preload","0","1116","0.0-0.0","","","","",""
"","","","","","html-keyboard-response","1","71299","0.0-1.0","70182","Welcome to the experiment. Press any key to begin."," ","",""
"","","","","","html-keyboard-response","2","116524","0.0-2.0","45223","
        <p>In this experiment, you will be shown short movies containing two objects. One of the objects will be moving toward the other.</p>
        <p>In these movies, the moving object either collides with the stationary object, or it comes to a stop before reaching the stationary object.
          However, you will be shown a clipped version of the movie that does not reveal the ending.</p> 
        <p>Please watch each clip carefully. Then predict whether or not the two objects will collide later on in the video.</p>
        <p>Press the <b>""F""</b> key for <b>yes</b>, the objects will collide.</p> 
        <p>Press the <b>""J""</b> key for <b>no</b>, the objects will not collide.</p>
        <p>Press any key to start.</p>
      "," ","",""
"","","","","","html-keyboard-response","3","118531","0.0-3.0-0.0","null","<div style=""font-size:60px;"">+</div>","null","fixation",""
"","","","","","video-keyboard-response","4","120099","0.0-3.0-1.0","1564","[""videos/fast_low_c12_white_mirror.mov""]","f","response","false"
"","","","","","html-keyboard-response","5","120601","0.0-3.0-0.1","null","<div style=""font-size:60px;"">+</div>","null","fixation",""
"","","","","","video-keyboard-response","6","122121","0.0-3.0-1.1","1520","[""videos/slow_med_c7_white.mov""]","j","response","false"
"","","","","","html-keyboard-response","7","122877","0.0-3.0-0.2","null","<div style=""font-size:60px;"">+</div>","null","fixation",""
"","","","","","video-keyboard-response","8","124237","0.0-3.0-1.2","1359","[""videos/med_high_c5_white.mov""]","f","response","false"
"","","","","","html-keyboard-response","9","124739","0.0-3.0-0.3","null","<div style=""font-size:60px;"">+</div>","null","fixation",""
"","","","","","video-keyboard-response","10","126088","0.0-3.0-1.3","1347","[""videos/slow_high_c3_white_mirror.mov""]","f","response","false"
"","","","","","html-keyboard-response","11","126590","0.0-3.0-0.4","null","<div style=""font-size:60px;"">+</div>","null","fixation",""
"","","","","","video-keyboard-response","12","127780","0.0-3.0-1.4","1188","[""videos/slow_low_c7_white.mov""]","j","response","false"
"","","","","","html-keyboard-response","13","131108","0.0-4.0","3328","<p>You can take a quick break now if you need it.</p>
      <p>Press the spacebar to continue.</p>"," ","",""
"","","","","","html-keyboard-response","14","132110","0.0-5.0-0.0","null","<div style=""font-size:60px;"">+</div>","null","fixation",""
"","","","","","video-keyboard-response","15","133252","0.0-5.0-1.0","1140","[""videos/slow_med_c5_tan.mov""]","f","response","false"
"","","","","","html-keyboard-response","16","134005","0.0-5.0-0.1","null","<div style=""font-size:60px;"">+</div>","null","fixation",""
"","","","","","video-keyboard-response","17","135548","0.0-5.0-1.1","1542","[""videos/med_med_c6_pink_mirror.mov""]","f","response","false"
"","","","","","html-keyboard-response","18","136300","0.0-5.0-0.2","null","<div style=""font-size:60px;"">+</div>","null","fixation",""
"","","","","","video-keyboard-response","19","137629","0.0-5.0-1.2","1328","[""videos/fast_high_c17_purple.mov""]","j","response","false"
"","","","","","html-keyboard-response","20","138380","0.0-5.0-0.3","null","<div style=""font-size:60px;"">+</div>","null","fixation",""
"","","","","","video-keyboard-response","21","139610","0.0-5.0-1.3","1228","[""videos/slow_med_c7_purple_mirror.mov""]","j","response","false"
"","","","","","html-keyboard-response","22","140112","0.0-5.0-0.4","null","<div style=""font-size:60px;"">+</div>","null","fixation",""
"","","","","","video-keyboard-response","23","141438","0.0-5.0-1.4","1325","[""videos/med_low_c12_teal_mirror.mov""]","j","response","false"
"","","","","","html-keyboard-response","24","141940","0.0-5.0-0.5","null","<div style=""font-size:60px;"">+</div>","null","fixation",""
"","","","","","video-keyboard-response","25","143026","0.0-5.0-1.5","1084","[""videos/slow_high_c3_teal.mov""]","f","response","false"
"","","","","","html-keyboard-response","26","143778","0.0-5.0-0.6","null","<div style=""font-size:60px;"">+</div>","null","fixation",""
"","","","","","video-keyboard-response","27","144999","0.0-5.0-1.6","1220","[""videos/slow_high_c1_tan.mov""]","f","response","false"
"","","","","","html-keyboard-response","28","146001","0.0-5.0-0.7","null","<div style=""font-size:60px;"">+</div>","null","fixation",""
"","","","","","video-keyboard-response","29","147371","0.0-5.0-1.7","1369","[""videos/fast_low_c15_pink_mirror.mov""]","f","response","false"
"","","","","","html-keyboard-response","30","148122","0.0-5.0-0.8","null","<div style=""font-size:60px;"">+</div>","null","fixation",""
"","","","","","video-keyboard-response","31","149459","0.0-5.0-1.8","1336","[""videos/med_med_c7_teal.mov""]","f","response","false"
"","","","","","html-keyboard-response","32","150211","0.0-5.0-0.9","null","<div style=""font-size:60px;"">+</div>","null","fixation",""
"","","","","","video-keyboard-response","33","151394","0.0-5.0-1.9","1182","[""videos/slow_high_c13_tan_mirror.mov""]","j","response","false"
"","","","","","html-keyboard-response","34","152397","0.0-5.0-0.10","null","<div style=""font-size:60px;"">+</div>","null","fixation",""
"","","","","","video-keyboard-response","35","154395","0.0-5.0-1.10","1997","[""videos/fast_low_c15_tan.mov""]","j","response","false"
"","","","","","html-keyboard-response","36","155147","0.0-5.0-0.11","null","<div style=""font-size:60px;"">+</div>","null","fixation",""
"","","","","","video-keyboard-response","37","156633","0.0-5.0-1.11","1484","[""videos/fast_low_c17_purple.mov""]","f","response","false"
"","","","","","html-keyboard-response","38","157134","0.0-5.0-0.12","null","<div style=""font-size:60px;"">+</div>","null","fixation",""
"","","","","","video-keyboard-response","39","158493","0.0-5.0-1.12","1358","[""videos/med_high_c6_tan_mirror.mov""]","f","response","false"
"","","","","","html-keyboard-response","40","159246","0.0-5.0-0.13","null","<div style=""font-size:60px;"">+</div>","null","fixation",""
"","","","","","video-keyboard-response","41","160422","0.0-5.0-1.13","1174","[""videos/fast_med_c11_purple.mov""]","f","response","false"
"","","","","","html-keyboard-response","42","161174","0.0-5.0-0.14","null","<div style=""font-size:60px;"">+</div>","null","fixation",""
"","","","","","video-keyboard-response","43","162703","0.0-5.0-1.14","1527","[""videos/fast_high_c12_teal.mov""]","f","response","false"
"","","","","","html-keyboard-response","44","165038","0.0-5.0-2.14-0.14","2335","<p>You can take a quick break now if you need it.</p>
      <p>Press the spacebar to continue.</p>"," ","",""
"","","","","","html-keyboard-response","45","165540","0.0-5.0-0.15","null","<div style=""font-size:60px;"">+</div>","null","fixation",""
"","","","","","video-keyboard-response","46","166917","0.0-5.0-1.15","1376","[""videos/fast_med_c15_tan.mov""]","f","response","false"
"","","","","","html-keyboard-response","47","167919","0.0-5.0-0.16","null","<div style=""font-size:60px;"">+</div>","null","fixation",""
"","","","","","video-keyboard-response","48","169102","0.0-5.0-1.16","1182","[""videos/fast_med_c11_pink_mirror.mov""]","f","response","false"
"","","","","","html-keyboard-response","49","169604","0.0-5.0-0.17","null","<div style=""font-size:60px;"">+</div>","null","fixation",""
"","","","","","video-keyboard-response","50","171054","0.0-5.0-1.17","1449","[""videos/fast_med_c15_purple_mirror.mov""]","j","response","false"
"","","","","","html-keyboard-response","51","171556","0.0-5.0-0.18","null","<div style=""font-size:60px;"">+</div>","null","fixation",""
"","","","","","video-keyboard-response","52","173043","0.0-5.0-1.18","1485","[""videos/fast_low_c5_teal_mirror.mov""]","f","response","false"
"","","","","","html-keyboard-response","53","173545","0.0-5.0-0.19","null","<div style=""font-size:60px;"">+</div>","null","fixation",""
"","","","","","video-keyboard-response","54","174957","0.0-5.0-1.19","1411","[""videos/fast_high_c11_teal.mov""]","f","response","false"
"","","","","","html-keyboard-response","55","175459","0.0-5.0-0.20","null","<div style=""font-size:60px;"">+</div>","null","fixation",""
"","","","","","video-keyboard-response","56","176936","0.0-5.0-1.20","1476","[""videos/slow_low_c3_pink_mirror.mov""]","j","response","false"
"","","","","","html-keyboard-response","57","177689","0.0-5.0-0.21","null","<div style=""font-size:60px;"">+</div>","null","fixation",""
"","","","","","video-keyboard-response","58","179111","0.0-5.0-1.21","1421","[""videos/med_med_c11_pink.mov""]","j","response","false"
"","","","","","html-keyboard-response","59","179613","0.0-5.0-0.22","null","<div style=""font-size:60px;"">+</div>","null","fixation",""
"","","","","","video-keyboard-response","60","181469","0.0-5.0-1.22","1854","[""videos/med_low_c5_pink_mirror.mov""]","f","response","false"
"","","","","","html-keyboard-response","61","181971","0.0-5.0-0.23","null","<div style=""font-size:60px;"">+</div>","null","fixation",""
"","","","","","video-keyboard-response","62","183540","0.0-5.0-1.23","1567","[""videos/slow_low_c4_purple.mov""]","j","response","false"
"","","","","","html-keyboard-response","63","184041","0.0-5.0-0.24","null","<div style=""font-size:60px;"">+</div>","null","fixation",""
"","","","","","video-keyboard-response","64","185390","0.0-5.0-1.24","1347","[""videos/fast_low_c5_purple.mov""]","f","response","false"
"","","","","","html-keyboard-response","65","186392","0.0-5.0-0.25","null","<div style=""font-size:60px;"">+</div>","null","fixation",""
"","","","","","video-keyboard-response","66","187981","0.0-5.0-1.25","1588","[""videos/fast_med_c13_pink_mirror.mov""]","f","response","false"
"","","","","","html-keyboard-response","67","188983","0.0-5.0-0.26","null","<div style=""font-size:60px;"">+</div>","null","fixation",""
"","","","","","video-keyboard-response","68","190565","0.0-5.0-1.26","1580","[""videos/slow_low_c7_tan_mirror.mov""]","j","response","false"
"","","","","","html-keyboard-response","69","191066","0.0-5.0-0.27","null","<div style=""font-size:60px;"">+</div>","null","fixation",""
"","","","","","video-keyboard-response","70","192451","0.0-5.0-1.27","1384","[""videos/slow_low_c1_pink.mov""]","f","response","false"
"","","","","","html-keyboard-response","71","192953","0.0-5.0-0.28","null","<div style=""font-size:60px;"">+</div>","null","fixation",""
"","","","","","video-keyboard-response","72","194345","0.0-5.0-1.28","1391","[""videos/slow_high_c2_purple_mirror.mov""]","f","response","false"
"","","","","","html-keyboard-response","73","194847","0.0-5.0-0.29","null","<div style=""font-size:60px;"">+</div>","null","fixation",""
"","","","","","video-keyboard-response","74","196394","0.0-5.0-1.29","1546","[""videos/med_high_c10_tan_mirror.mov""]","j","response","false"
"","","","","","html-keyboard-response","75","196895","0.0-5.0-0.30","null","<div style=""font-size:60px;"">+</div>","null","fixation",""
"","","","","","video-keyboard-response","76","198469","0.0-5.0-1.30","1572","[""videos/slow_med_c5_purple_mirror.mov""]","j","response","false"
"","","","","","html-keyboard-response","77","198971","0.0-5.0-0.31","null","<div style=""font-size:60px;"">+</div>","null","fixation",""
"","","","","","video-keyboard-response","78","200775","0.0-5.0-1.31","1802","[""videos/fast_high_c12_pink_mirror.mov""]","f","response","false"
"","","","","","html-keyboard-response","79","201777","0.0-5.0-0.32","null","<div style=""font-size:60px;"">+</div>","null","fixation",""
"","","","","","video-keyboard-response","80","203652","0.0-5.0-1.32","1874","[""videos/fast_low_c17_tan_mirror.mov""]","j","response","false"
"","","","","","html-keyboard-response","81","204404","0.0-5.0-0.33","null","<div style=""font-size:60px;"">+</div>","null","fixation",""
"","","","","","video-keyboard-response","82","206366","0.0-5.0-1.33","1960","[""videos/fast_low_c16_teal.mov""]","j","response","false"
"","","","","","html-keyboard-response","83","207117","0.0-5.0-0.34","null","<div style=""font-size:60px;"">+</div>","null","fixation",""
"","","","","","video-keyboard-response","84","208787","0.0-5.0-1.34","1669","[""videos/slow_low_c5_tan_mirror.mov""]","j","response","false"
"","","","","","html-keyboard-response","85","210347","0.0-5.0-2.34-0.34","1559","<p>You can take a quick break now if you need it.</p>
      <p>Press the spacebar to continue.</p>"," ","",""
"","","","","","html-keyboard-response","86","210848","0.0-5.0-0.35","null","<div style=""font-size:60px;"">+</div>","null","fixation",""
"","","","","","video-keyboard-response","87","212269","0.0-5.0-1.35","1420","[""videos/med_med_c7_purple_mirror.mov""]","f","response","false"
"","","","","","html-keyboard-response","88","213021","0.0-5.0-0.36","null","<div style=""font-size:60px;"">+</div>","null","fixation",""
"","","","","","video-keyboard-response","89","214264","0.0-5.0-1.36","1241","[""videos/med_med_c4_pink_mirror.mov""]","f","response","false"
"","","","","","html-keyboard-response","90","215014","0.0-5.0-0.37","null","<div style=""font-size:60px;"">+</div>","null","fixation",""
"","","","","","video-keyboard-response","91","216476","0.0-5.0-1.37","1460","[""videos/med_low_c16_teal_mirror.mov""]","j","response","false"
"","","","","","html-keyboard-response","92","216978","0.0-5.0-0.38","null","<div style=""font-size:60px;"">+</div>","null","fixation",""
"","","","","","video-keyboard-response","93","218491","0.0-5.0-1.38","1512","[""videos/slow_high_c4_teal.mov""]","f","response","false"
"","","","","","html-keyboard-response","94","219494","0.0-5.0-0.39","null","<div style=""font-size:60px;"">+</div>","null","fixation",""
"","","","","","video-keyboard-response","95","220943","0.0-5.0-1.39","1448","[""videos/slow_med_c4_teal_mirror.mov""]","f","response","false"
"","","","","","html-keyboard-response","96","221445","0.0-5.0-0.40","null","<div style=""font-size:60px;"">+</div>","null","fixation",""
"","","","","","video-keyboard-response","97","223279","0.0-5.0-1.40","1832","[""videos/med_med_c9_purple_mirror.mov""]","f","response","false"
"","","","","","html-keyboard-response","98","224031","0.0-5.0-0.41","null","<div style=""font-size:60px;"">+</div>","null","fixation",""
"","","","","","video-keyboard-response","99","225467","0.0-5.0-1.41","1435","[""videos/slow_high_c6_pink_mirror.mov""]","j","response","false"
"","","","","","html-keyboard-response","100","226220","0.0-5.0-0.42","null","<div style=""font-size:60px;"">+</div>","null","fixation",""
"","","","","","video-keyboard-response","101","227582","0.0-5.0-1.42","1361","[""videos/slow_med_c2_teal.mov""]","f","response","false"
"","","","","","html-keyboard-response","102","228084","0.0-5.0-0.43","null","<div style=""font-size:60px;"">+</div>","null","fixation",""
"","","","","","video-keyboard-response","103","229680","0.0-5.0-1.43","1595","[""videos/fast_high_c13_pink_mirror.mov""]","f","response","false"
"","","","","","html-keyboard-response","104","230681","0.0-5.0-0.44","null","<div style=""font-size:60px;"">+</div>","null","fixation",""
"","","","","","video-keyboard-response","105","232394","0.0-5.0-1.44","1711","[""videos/fast_med_c15_pink.mov""]","f","response","false"
"","","","","","html-keyboard-response","106","233146","0.0-5.0-0.45","null","<div style=""font-size:60px;"">+</div>","null","fixation",""
"","","","","","video-keyboard-response","107","234909","0.0-5.0-1.45","1762","[""videos/med_med_c8_purple.mov""]","f","response","false"
"","","","","","html-keyboard-response","108","235911","0.0-5.0-0.46","null","<div style=""font-size:60px;"">+</div>","null","fixation",""
"","","","","","video-keyboard-response","109","237350","0.0-5.0-1.46","1437","[""videos/fast_high_c10_purple_mirror.mov""]","f","response","false"
"","","","","","html-keyboard-response","110","238102","0.0-5.0-0.47","null","<div style=""font-size:60px;"">+</div>","null","fixation",""
"","","","","","video-keyboard-response","111","239660","0.0-5.0-1.47","1557","[""videos/slow_low_c7_purple.mov""]","j","response","false"
"","","","","","html-keyboard-response","112","240162","0.0-5.0-0.48","null","<div style=""font-size:60px;"">+</div>","null","fixation",""
"","","","","","video-keyboard-response","113","241602","0.0-5.0-1.48","1439","[""videos/fast_high_c8_tan.mov""]","f","response","false"
"","","","","","html-keyboard-response","114","242604","0.0-5.0-0.49","null","<div style=""font-size:60px;"">+</div>","null","fixation",""
"","","","","","video-keyboard-response","115","244442","0.0-5.0-1.49","1836","[""videos/med_med_c14_purple.mov""]","j","response","false"
"","","","","","html-keyboard-response","116","245194","0.0-5.0-0.50","null","<div style=""font-size:60px;"">+</div>","null","fixation",""
"","","","","","video-keyboard-response","117","246533","0.0-5.0-1.50","1338","[""videos/slow_med_c1_tan.mov""]","f","response","false"
"","","","","","html-keyboard-response","118","247536","0.0-5.0-0.51","null","<div style=""font-size:60px;"">+</div>","null","fixation",""
"","","","","","video-keyboard-response","119","249176","0.0-5.0-1.51","1638","[""videos/med_low_c10_purple.mov""]","f","response","false"
"","","","","","html-keyboard-response","120","249677","0.0-5.0-0.52","null","<div style=""font-size:60px;"">+</div>","null","fixation",""
"","","","","","video-keyboard-response","121","251005","0.0-5.0-1.52","1326","[""videos/fast_high_c4_purple.mov""]","f","response","false"
"","","","","","html-keyboard-response","122","252007","0.0-5.0-0.53","null","<div style=""font-size:60px;"">+</div>","null","fixation",""
"","","","","","video-keyboard-response","123","253348","0.0-5.0-1.53","1339","[""videos/med_med_c1_pink_mirror.mov""]","f","response","false"
"","","","","","html-keyboard-response","124","254351","0.0-5.0-0.54","null","<div style=""font-size:60px;"">+</div>","null","fixation",""
"","","","","","video-keyboard-response","125","255826","0.0-5.0-1.54","1474","[""videos/slow_med_c7_tan.mov""]","j","response","false"
"","","","","","html-keyboard-response","126","262757","0.0-5.0-2.54-0.54","6931","<p>You can take a quick break now if you need it.</p>
      <p>Press the spacebar to continue.</p>"," ","",""
"","","","","","html-keyboard-response","127","263758","0.0-5.0-0.55","null","<div style=""font-size:60px;"">+</div>","null","fixation",""
"","","","","","video-keyboard-response","128","265106","0.0-5.0-1.55","1347","[""videos/slow_low_c3_tan_mirror.mov""]","f","response","false"
"","","","","","html-keyboard-response","129","265608","0.0-5.0-0.56","null","<div style=""font-size:60px;"">+</div>","null","fixation",""
"","","","","","video-keyboard-response","130","266996","0.0-5.0-1.56","1386","[""videos/med_low_c2_tan.mov""]","f","response","false"
"","","","","","html-keyboard-response","131","267998","0.0-5.0-0.57","null","<div style=""font-size:60px;"">+</div>","null","fixation",""
"","","","","","video-keyboard-response","132","269385","0.0-5.0-1.57","1386","[""videos/fast_high_c10_tan.mov""]","f","response","false"
"","","","","","html-keyboard-response","133","269887","0.0-5.0-0.58","null","<div style=""font-size:60px;"">+</div>","null","fixation",""
"","","","","","video-keyboard-response","134","271204","0.0-5.0-1.58","1316","[""videos/med_high_c3_pink_mirror.mov""]","f","response","false"
"","","","","","html-keyboard-response","135","271955","0.0-5.0-0.59","null","<div style=""font-size:60px;"">+</div>","null","fixation",""
"","","","","","video-keyboard-response","136","273478","0.0-5.0-1.59","1521","[""videos/med_high_c13_purple.mov""]","j","response","false"
"","","","","","html-keyboard-response","137","274480","0.0-5.0-0.60","null","<div style=""font-size:60px;"">+</div>","null","fixation",""
"","","","","","video-keyboard-response","138","276672","0.0-5.0-1.60","2191","[""videos/med_low_c9_tan_mirror.mov""]","j","response","false"
"","","","","","html-keyboard-response","139","277424","0.0-5.0-0.61","null","<div style=""font-size:60px;"">+</div>","null","fixation",""
"","","","","","video-keyboard-response","140","279149","0.0-5.0-1.61","1724","[""videos/med_low_c9_purple.mov""]","j","response","false"
"","","","","","html-keyboard-response","141","279651","0.0-5.0-0.62","null","<div style=""font-size:60px;"">+</div>","null","fixation",""
"","","","","","video-keyboard-response","142","281482","0.0-5.0-1.62","1830","[""videos/fast_high_c13_teal.mov""]","f","response","false"
"","","","","","html-keyboard-response","143","282484","0.0-5.0-0.63","null","<div style=""font-size:60px;"">+</div>","null","fixation",""
"","","","","","video-keyboard-response","144","284139","0.0-5.0-1.63","1654","[""videos/med_low_c10_pink_mirror.mov""]","f","response","false"
"","","","","","html-keyboard-response","145","284640","0.0-5.0-0.64","null","<div style=""font-size:60px;"">+</div>","null","fixation",""
"","","","","","video-keyboard-response","146","286266","0.0-5.0-1.64","1625","[""videos/fast_med_c14_teal.mov""]","f","response","false"
"","","","","","html-keyboard-response","147","287018","0.0-5.0-0.65","null","<div style=""font-size:60px;"">+</div>","null","fixation",""
"","","","","","video-keyboard-response","148","288389","0.0-5.0-1.65","1370","[""videos/slow_med_c4_tan.mov""]","f","response","false"
"","","","","","html-keyboard-response","149","289391","0.0-5.0-0.66","null","<div style=""font-size:60px;"">+</div>","null","fixation",""
"","","","","","video-keyboard-response","150","291190","0.0-5.0-1.66","1798","[""videos/med_low_c7_teal.mov""]","f","response","false"
"","","","","","html-keyboard-response","151","291692","0.0-5.0-0.67","null","<div style=""font-size:60px;"">+</div>","null","fixation",""
"","","","","","video-keyboard-response","152","293653","0.0-5.0-1.67","1959","[""videos/med_low_c16_pink.mov""]","j","response","false"
"","","","","","html-keyboard-response","153","294154","0.0-5.0-0.68","null","<div style=""font-size:60px;"">+</div>","null","fixation",""
"","","","","","video-keyboard-response","154","295783","0.0-5.0-1.68","1628","[""videos/med_high_c10_teal.mov""]","j","response","false"
"","","","","","html-keyboard-response","155","296785","0.0-5.0-0.69","null","<div style=""font-size:60px;"">+</div>","null","fixation",""
"","","","","","video-keyboard-response","156","298311","0.0-5.0-1.69","1524","[""videos/slow_med_c10_teal.mov""]","j","response","false"
"","","","","","html-keyboard-response","157","299313","0.0-5.0-0.70","null","<div style=""font-size:60px;"">+</div>","null","fixation",""
"","","","","","video-keyboard-response","158","300807","0.0-5.0-1.70","1493","[""videos/fast_high_c17_pink_mirror.mov""]","j","response","false"
"","","","","","html-keyboard-response","159","301309","0.0-5.0-0.71","null","<div style=""font-size:60px;"">+</div>","null","fixation",""
"","","","","","video-keyboard-response","160","303312","0.0-5.0-1.71","2002","[""videos/fast_low_c17_teal_mirror.mov""]","j","response","false"
"","","","","","html-keyboard-response","161","304315","0.0-5.0-0.72","null","<div style=""font-size:60px;"">+</div>","null","fixation",""
"","","","","","video-keyboard-response","162","305752","0.0-5.0-1.72","1436","[""videos/fast_high_c8_teal_mirror.mov""]","f","response","false"
"","","","","","html-keyboard-response","163","306254","0.0-5.0-0.73","null","<div style=""font-size:60px;"">+</div>","null","fixation",""
"","","","","","video-keyboard-response","164","307774","0.0-5.0-1.73","1519","[""videos/slow_high_c4_tan_mirror.mov""]","j","response","false"
"","","","","","html-keyboard-response","165","308527","0.0-5.0-0.74","null","<div style=""font-size:60px;"">+</div>","null","fixation",""
"","","","","","video-keyboard-response","166","310558","0.0-5.0-1.74","2029","[""videos/med_low_c8_pink_mirror.mov""]","j","response","false"
"","","","","","html-keyboard-response","167","313668","0.0-5.0-2.74-0.74","3109","<p>You can take a quick break now if you need it.</p>
      <p>Press the spacebar to continue.</p>"," ","",""
"","","","","","html-keyboard-response","168","314169","0.0-5.0-0.75","null","<div style=""font-size:60px;"">+</div>","null","fixation",""
"","","","","","video-keyboard-response","169","315421","0.0-5.0-1.75","1250","[""videos/med_med_c4_teal.mov""]","f","response","false"
"","","","","","html-keyboard-response","170","316424","0.0-5.0-0.76","null","<div style=""font-size:60px;"">+</div>","null","fixation",""
"","","","","","video-keyboard-response","171","317753","0.0-5.0-1.76","1328","[""videos/slow_high_c13_pink.mov""]","j","response","false"
"","","","","","html-keyboard-response","172","318756","0.0-5.0-0.77","null","<div style=""font-size:60px;"">+</div>","null","fixation",""
"","","","","","video-keyboard-response","173","320031","0.0-5.0-1.77","1273","[""videos/slow_med_c3_pink.mov""]","f","response","false"
"","","","","","html-keyboard-response","174","320781","0.0-5.0-0.78","null","<div style=""font-size:60px;"">+</div>","null","fixation",""
"","","","","","video-keyboard-response","175","322281","0.0-5.0-1.78","1498","[""videos/fast_high_c11_purple_mirror.mov""]","f","response","false"
"","","","","","html-keyboard-response","176","323283","0.0-5.0-0.79","null","<div style=""font-size:60px;"">+</div>","null","fixation",""
"","","","","","video-keyboard-response","177","324669","0.0-5.0-1.79","1384","[""videos/slow_low_c2_teal.mov""]","f","response","false"
"","","","","","html-keyboard-response","178","325422","0.0-5.0-0.80","null","<div style=""font-size:60px;"">+</div>","null","fixation",""
"","","","","","video-keyboard-response","179","326939","0.0-5.0-1.80","1516","[""videos/fast_med_c17_tan.mov""]","f","response","false"
"","","","","","html-keyboard-response","180","327941","0.0-5.0-0.81","null","<div style=""font-size:60px;"">+</div>","null","fixation",""
"","","","","","video-keyboard-response","181","329353","0.0-5.0-1.81","1411","[""videos/med_med_c6_tan.mov""]","f","response","false"
"","","","","","html-keyboard-response","182","330355","0.0-5.0-0.82","null","<div style=""font-size:60px;"">+</div>","null","fixation",""
"","","","","","video-keyboard-response","183","331623","0.0-5.0-1.82","1266","[""videos/med_med_c1_tan.mov""]","f","response","false"
"","","","","","html-keyboard-response","184","332375","0.0-5.0-0.83","null","<div style=""font-size:60px;"">+</div>","null","fixation",""
"","","","","","video-keyboard-response","185","333869","0.0-5.0-1.83","1492","[""videos/slow_med_c10_tan_mirror.mov""]","j","response","false"
"","","","","","html-keyboard-response","186","334370","0.0-5.0-0.84","null","<div style=""font-size:60px;"">+</div>","null","fixation",""
"","","","","","video-keyboard-response","187","336142","0.0-5.0-1.84","1771","[""videos/fast_low_c16_purple_mirror.mov""]","j","response","false"
"","","","","","html-keyboard-response","188","336644","0.0-5.0-0.85","null","<div style=""font-size:60px;"">+</div>","null","fixation",""
"","","","","","video-keyboard-response","189","337912","0.0-5.0-1.85","1267","[""videos/slow_high_c2_pink_mirror.mov""]","f","response","false"
"","","","","","html-keyboard-response","190","338664","0.0-5.0-0.86","null","<div style=""font-size:60px;"">+</div>","null","fixation",""
"","","","","","video-keyboard-response","191","340184","0.0-5.0-1.86","1518","[""videos/fast_med_c13_teal.mov""]","f","response","false"
"","","","","","html-keyboard-response","192","340686","0.0-5.0-0.87","null","<div style=""font-size:60px;"">+</div>","null","fixation",""
"","","","","","video-keyboard-response","193","341931","0.0-5.0-1.87","1244","[""videos/med_low_c2_pink_mirror.mov""]","f","response","false"
"","","","","","html-keyboard-response","194","342933","0.0-5.0-0.88","null","<div style=""font-size:60px;"">+</div>","null","fixation",""
"","","","","","video-keyboard-response","195","344441","0.0-5.0-1.88","1507","[""videos/med_low_c7_pink_mirror.mov""]","f","response","false"
"","","","","","html-keyboard-response","196","345442","0.0-5.0-0.89","null","<div style=""font-size:60px;"">+</div>","null","fixation",""
"","","","","","video-keyboard-response","197","347406","0.0-5.0-1.89","1963","[""videos/med_high_c7_pink_mirror.mov""]","j","response","false"
"","","","","","html-keyboard-response","198","348408","0.0-5.0-0.90","null","<div style=""font-size:60px;"">+</div>","null","fixation",""
"","","","","","video-keyboard-response","199","349675","0.0-5.0-1.90","1266","[""videos/med_high_c1_tan.mov""]","f","response","false"
"","","","","","html-keyboard-response","200","350176","0.0-5.0-0.91","null","<div style=""font-size:60px;"">+</div>","null","fixation",""
"","","","","","video-keyboard-response","201","351534","0.0-5.0-1.91","1356","[""videos/med_med_c14_teal_mirror.mov""]","j","response","false"
"","","","","","html-keyboard-response","202","352285","0.0-5.0-0.92","null","<div style=""font-size:60px;"">+</div>","null","fixation",""
"","","","","","video-keyboard-response","203","353744","0.0-5.0-1.92","1458","[""videos/slow_low_c12_purple.mov""]","j","response","false"
"","","","","","html-keyboard-response","204","354747","0.0-5.0-0.93","null","<div style=""font-size:60px;"">+</div>","null","fixation",""
"","","","","","video-keyboard-response","205","355969","0.0-5.0-1.93","1221","[""videos/med_high_c5_pink_mirror.mov""]","f","response","false"
"","","","","","html-keyboard-response","206","356971","0.0-5.0-0.94","null","<div style=""font-size:60px;"">+</div>","null","fixation",""
"","","","","","video-keyboard-response","207","358754","0.0-5.0-1.94","1782","[""videos/med_low_c12_pink.mov""]","j","response","false"
"","","","","","html-keyboard-response","208","399121","0.0-5.0-2.94-0.94","40366","<p>You can take a quick break now if you need it.</p>
      <p>Press the spacebar to continue.</p>"," ","",""
"","","","","","html-keyboard-response","209","399623","0.0-5.0-0.95","null","<div style=""font-size:60px;"">+</div>","null","fixation",""
"","","","","","video-keyboard-response","210","401318","0.0-5.0-1.95","1693","[""videos/slow_high_c6_teal.mov""]","j","response","false"
"","","","","","html-keyboard-response","211","401820","0.0-5.0-0.96","null","<div style=""font-size:60px;"">+</div>","null","fixation",""
"","","","","","video-keyboard-response","212","403322","0.0-5.0-1.96","1500","[""videos/med_high_c8_pink.mov""]","j","response","false"
"","","","","","html-keyboard-response","213","404324","0.0-5.0-0.97","null","<div style=""font-size:60px;"">+</div>","null","fixation",""
"","","","","","video-keyboard-response","214","405869","0.0-5.0-1.97","1543","[""videos/med_low_c5_teal.mov""]","f","response","false"
"","","","","","html-keyboard-response","215","406370","0.0-5.0-0.98","null","<div style=""font-size:60px;"">+</div>","null","fixation",""
"","","","","","video-keyboard-response","216","407954","0.0-5.0-1.98","1582","[""videos/slow_low_c4_pink_mirror.mov""]","j","response","false"
"","","","","","html-keyboard-response","217","408706","0.0-5.0-0.99","null","<div style=""font-size:60px;"">+</div>","null","fixation",""
"","","","","","video-keyboard-response","218","410344","0.0-5.0-1.99","1636","[""videos/fast_med_c17_purple_mirror.mov""]","f","response","false"
"","","","","","html-keyboard-response","219","411095","0.0-5.0-0.100","null","<div style=""font-size:60px;"">+</div>","null","fixation",""
"","","","","","video-keyboard-response","220","412379","0.0-5.0-1.100","1282","[""videos/slow_low_c2_pink_mirror.mov""]","f","response","false"
"","","","","","html-keyboard-response","221","413380","0.0-5.0-0.101","null","<div style=""font-size:60px;"">+</div>","null","fixation",""
"","","","","","video-keyboard-response","222","414760","0.0-5.0-1.101","1378","[""videos/slow_low_c1_teal_mirror.mov""]","f","response","false"
"","","","","","html-keyboard-response","223","415512","0.0-5.0-0.102","null","<div style=""font-size:60px;"">+</div>","null","fixation",""
"","","","","","video-keyboard-response","224","416871","0.0-5.0-1.102","1358","[""videos/fast_high_c4_pink_mirror.mov""]","f","response","false"
"","","","","","html-keyboard-response","225","417373","0.0-5.0-0.103","null","<div style=""font-size:60px;"">+</div>","null","fixation",""
"","","","","","video-keyboard-response","226","418825","0.0-5.0-1.103","1450","[""videos/slow_high_c2_tan.mov""]","f","response","false"
"","","","","","html-keyboard-response","227","419827","0.0-5.0-0.104","null","<div style=""font-size:60px;"">+</div>","null","fixation",""
"","","","","","video-keyboard-response","228","421538","0.0-5.0-1.104","1709","[""videos/med_high_c7_purple.mov""]","f","response","false"
"","","","","","html-keyboard-response","229","422040","0.0-5.0-0.105","null","<div style=""font-size:60px;"">+</div>","null","fixation",""
"","","","","","video-keyboard-response","230","423755","0.0-5.0-1.105","1714","[""videos/fast_med_c16_pink.mov""]","f","response","false"
"","","","","","html-keyboard-response","231","424507","0.0-5.0-0.106","null","<div style=""font-size:60px;"">+</div>","null","fixation",""
"","","","","","video-keyboard-response","232","426152","0.0-5.0-1.106","1643","[""videos/fast_med_c16_tan_mirror.mov""]","f","response","false"
"","","","","","html-keyboard-response","233","427154","0.0-5.0-0.107","null","<div style=""font-size:60px;"">+</div>","null","fixation",""
"","","","","","video-keyboard-response","234","428756","0.0-5.0-1.107","1601","[""videos/med_high_c3_purple.mov""]","f","response","false"
"","","","","","html-keyboard-response","235","429508","0.0-5.0-0.108","null","<div style=""font-size:60px;"">+</div>","null","fixation",""
"","","","","","video-keyboard-response","236","431144","0.0-5.0-1.108","1635","[""videos/med_high_c8_teal_mirror.mov""]","j","response","false"
"","","","","","html-keyboard-response","237","431895","0.0-5.0-0.109","null","<div style=""font-size:60px;"">+</div>","null","fixation",""
"","","","","","video-keyboard-response","238","433945","0.0-5.0-1.109","2048","[""videos/med_med_c8_teal_mirror.mov""]","j","response","false"
"","","","","","html-keyboard-response","239","434947","0.0-5.0-0.110","null","<div style=""font-size:60px;"">+</div>","null","fixation",""
"","","","","","video-keyboard-response","240","436611","0.0-5.0-1.110","1662","[""videos/slow_med_c1_purple_mirror.mov""]","f","response","false"
"","","","","","html-keyboard-response","241","437113","0.0-5.0-0.111","null","<div style=""font-size:60px;"">+</div>","null","fixation",""
"","","","","","video-keyboard-response","242","438432","0.0-5.0-1.111","1318","[""videos/slow_med_c2_purple.mov""]","f","response","false"
"","","","","","html-keyboard-response","243","438934","0.0-5.0-0.112","null","<div style=""font-size:60px;"">+</div>","null","fixation",""
"","","","","","video-keyboard-response","244","440213","0.0-5.0-1.112","1278","[""videos/fast_med_c6_teal.mov""]","f","response","false"
"","","","","","html-keyboard-response","245","441215","0.0-5.0-0.113","null","<div style=""font-size:60px;"">+</div>","null","fixation",""
"","","","","","video-keyboard-response","246","442337","0.0-5.0-1.113","1120","[""videos/fast_high_c15_pink.mov""]","j","response","false"
"","","","","","html-keyboard-response","247","442839","0.0-5.0-0.114","null","<div style=""font-size:60px;"">+</div>","null","fixation",""
"","","","","","video-keyboard-response","248","444391","0.0-5.0-1.114","1550","[""videos/fast_med_c14_pink_mirror.mov""]","f","response","false"
"","","","","","html-keyboard-response","249","445688","0.0-5.0-2.114-0.114","1296","<p>You can take a quick break now if you need it.</p>
      <p>Press the spacebar to continue.</p>"," ","",""
"","","","","","html-keyboard-response","250","446189","0.0-5.0-0.115","null","<div style=""font-size:60px;"">+</div>","null","fixation",""
"","","","","","video-keyboard-response","251","447663","0.0-5.0-1.115","1472","[""videos/slow_high_c1_teal.mov""]","f","response","false"
"","","","","","html-keyboard-response","252","448415","0.0-5.0-0.116","null","<div style=""font-size:60px;"">+</div>","null","fixation",""
"","","","","","video-keyboard-response","253","449909","0.0-5.0-1.116","1493","[""videos/fast_med_c16_purple_mirror.mov""]","f","response","false"
"","","","","","html-keyboard-response","254","450660","0.0-5.0-0.117","null","<div style=""font-size:60px;"">+</div>","null","fixation",""
"","","","","","video-keyboard-response","255","452491","0.0-5.0-1.117","1829","[""videos/fast_low_c14_teal.mov""]","j","response","false"
"","","","","","html-keyboard-response","256","453243","0.0-5.0-0.118","null","<div style=""font-size:60px;"">+</div>","null","fixation",""
"","","","","","video-keyboard-response","257","454835","0.0-5.0-1.118","1591","[""videos/med_high_c5_teal.mov""]","f","response","false"
"","","","","","html-keyboard-response","258","455588","0.0-5.0-0.119","null","<div style=""font-size:60px;"">+</div>","null","fixation",""
"","","","","","video-keyboard-response","259","457404","0.0-5.0-1.119","1815","[""videos/fast_low_c14_tan_mirror.mov""]","f","response","false"
"","","","","","html-keyboard-response","260","458156","0.0-5.0-0.120","null","<div style=""font-size:60px;"">+</div>","null","fixation",""
"","","","","","video-keyboard-response","261","459892","0.0-5.0-1.120","1735","[""videos/slow_low_c12_pink_mirror.mov""]","j","response","false"
"","","","","","html-keyboard-response","262","460393","0.0-5.0-0.121","null","<div style=""font-size:60px;"">+</div>","null","fixation",""
"","","","","","video-keyboard-response","263","461897","0.0-5.0-1.121","1502","[""videos/fast_low_c12_tan.mov""]","f","response","false"
"","","","","","html-keyboard-response","264","462649","0.0-5.0-0.122","null","<div style=""font-size:60px;"">+</div>","null","fixation",""
"","","","","","video-keyboard-response","265","464357","0.0-5.0-1.122","1707","[""videos/med_low_c8_tan.mov""]","j","response","false"
"","","","","","html-keyboard-response","266","464859","0.0-5.0-0.123","null","<div style=""font-size:60px;"">+</div>","null","fixation",""
"","","","","","video-keyboard-response","267","466382","0.0-5.0-1.123","1521","[""videos/slow_med_c2_tan_mirror.mov""]","f","response","false"
"","","","","","html-keyboard-response","268","466883","0.0-5.0-0.124","null","<div style=""font-size:60px;"">+</div>","null","fixation",""
"","","","","","video-keyboard-response","269","468482","0.0-5.0-1.124","1597","[""videos/slow_high_c1_pink_mirror.mov""]","f","response","false"
"","","","","","html-keyboard-response","270","469485","0.0-5.0-0.125","null","<div style=""font-size:60px;"">+</div>","null","fixation",""
"","","","","","video-keyboard-response","271","471111","0.0-5.0-1.125","1625","[""videos/fast_high_c15_purple_mirror.mov""]","j","response","false"
"","","","","","html-keyboard-response","272","471863","0.0-5.0-0.126","null","<div style=""font-size:60px;"">+</div>","null","fixation",""
"","","","","","video-keyboard-response","273","473553","0.0-5.0-1.126","1688","[""videos/med_high_c6_pink.mov""]","f","response","false"
"","","","","","html-keyboard-response","274","474305","0.0-5.0-0.127","null","<div style=""font-size:60px;"">+</div>","null","fixation",""
"","","","","","video-keyboard-response","275","475676","0.0-5.0-1.127","1369","[""videos/fast_med_c6_tan_mirror.mov""]","f","response","false"
"","","","","","html-keyboard-response","276","476428","0.0-5.0-0.128","null","<div style=""font-size:60px;"">+</div>","null","fixation",""
"","","","","","video-keyboard-response","277","477998","0.0-5.0-1.128","1568","[""videos/slow_low_c5_purple.mov""]","j","response","false"
"","","","","","html-keyboard-response","278","478749","0.0-5.0-0.129","null","<div style=""font-size:60px;"">+</div>","null","fixation",""
"","","","","","video-keyboard-response","279","480027","0.0-5.0-1.129","1277","[""videos/slow_high_c3_purple_mirror.mov""]","f","response","false"
"","","","","","html-keyboard-response","280","481029","0.0-5.0-0.130","null","<div style=""font-size:60px;"">+</div>","null","fixation",""
"","","","","","video-keyboard-response","281","482681","0.0-5.0-1.130","1650","[""videos/med_med_c9_pink.mov""]","j","response","false"
"","","","","","html-keyboard-response","282","483682","0.0-5.0-0.131","null","<div style=""font-size:60px;"">+</div>","null","fixation",""
"","","","","","video-keyboard-response","283","485178","0.0-5.0-1.131","1494","[""videos/slow_high_c1_purple_mirror.mov""]","f","response","false"
"","","","","","html-keyboard-response","284","485929","0.0-5.0-0.132","null","<div style=""font-size:60px;"">+</div>","null","fixation",""
"","","","","","video-keyboard-response","285","487340","0.0-5.0-1.132","1410","[""videos/med_high_c1_purple_mirror.mov""]","f","response","false"
"","","","","","html-keyboard-response","286","488342","0.0-5.0-0.133","null","<div style=""font-size:60px;"">+</div>","null","fixation",""
"","","","","","video-keyboard-response","287","489918","0.0-5.0-1.133","1575","[""videos/slow_high_c2_teal.mov""]","f","response","false"
"","","","","","html-keyboard-response","288","490670","0.0-5.0-0.134","null","<div style=""font-size:60px;"">+</div>","null","fixation",""
"","","","","","video-keyboard-response","289","492122","0.0-5.0-1.134","1450","[""videos/med_med_c11_teal_mirror.mov""]","j","response","false"
"","","","","","html-keyboard-response","290","552011","0.0-5.0-2.134-0.134","59888","<p>You can take a quick break now if you need it.</p>
      <p>Press the spacebar to continue.</p>"," ","",""
"","","","","","html-keyboard-response","291","552513","0.0-5.0-0.135","null","<div style=""font-size:60px;"">+</div>","null","fixation",""
"","","","","","video-keyboard-response","292","553878","0.0-5.0-1.135","1363","[""videos/slow_low_c2_purple_mirror.mov""]","f","response","false"
"","","","","","html-keyboard-response","293","554379","0.0-5.0-0.136","null","<div style=""font-size:60px;"">+</div>","null","fixation",""
"","","","","","video-keyboard-response","294","555879","0.0-5.0-1.136","1499","[""videos/med_high_c13_pink_mirror.mov""]","j","response","false"
"","","","","","html-keyboard-response","295","556631","0.0-5.0-0.137","null","<div style=""font-size:60px;"">+</div>","null","fixation",""
"","","","","","video-keyboard-response","296","558052","0.0-5.0-1.137","1419","[""videos/slow_med_c3_purple_mirror.mov""]","f","response","false"
"","","","","","html-keyboard-response","297","559054","0.0-5.0-0.138","null","<div style=""font-size:60px;"">+</div>","null","fixation",""
"","","","","","video-keyboard-response","298","560528","0.0-5.0-1.138","1473","[""videos/slow_low_c3_teal.mov""]","f","response","false"
"","","","","","html-keyboard-response","299","561280","0.0-5.0-0.139","null","<div style=""font-size:60px;"">+</div>","null","fixation",""
"","","","","","video-keyboard-response","300","563016","0.0-5.0-1.139","1735","[""videos/fast_low_c16_tan.mov""]","f","response","false"
"","","","","","html-keyboard-response","301","563768","0.0-5.0-0.140","null","<div style=""font-size:60px;"">+</div>","null","fixation",""
"","","","","","video-keyboard-response","302","565264","0.0-5.0-1.140","1494","[""videos/fast_low_c16_pink_mirror.mov""]","j","response","false"
"","","","","","html-keyboard-response","303","565765","0.0-5.0-0.141","null","<div style=""font-size:60px;"">+</div>","null","fixation",""
"","","","","","video-keyboard-response","304","567576","0.0-5.0-1.141","1809","[""videos/fast_low_c17_pink.mov""]","j","response","false"
"","","","","","html-keyboard-response","305","568577","0.0-5.0-0.142","null","<div style=""font-size:60px;"">+</div>","null","fixation",""
"","","","","","video-keyboard-response","306","570080","0.0-5.0-1.142","1501","[""videos/slow_med_c3_tan.mov""]","f","response","false"
"","","","","","html-keyboard-response","307","570832","0.0-5.0-0.143","null","<div style=""font-size:60px;"">+</div>","null","fixation",""
"","","","","","video-keyboard-response","308","572947","0.0-5.0-1.143","2114","[""videos/fast_low_c12_purple_mirror.mov""]","f","response","false"
"","","","","","html-keyboard-response","309","574215","0.0-6.0","1267","<p>You can take a quick break now if you need it.</p>
      <p>Press the spacebar to continue.</p>"," ","",""
"","","","","","html-keyboard-response","310","574716","0.0-7.0-0.0","null","<div style=""font-size:60px;"">+</div>","null","fixation",""
"","","","","","video-keyboard-response","311","576763","0.0-7.0-1.0","2046","[""videos/med_med_c7_white.mov""]","f","response","false"
"","","","","","html-keyboard-response","312","577516","0.0-7.0-0.1","null","<div style=""font-size:60px;"">+</div>","null","fixation",""
"","","","","","video-keyboard-response","313","579340","0.0-7.0-1.1","1823","[""videos/slow_low_c5_white_mirror.mov""]","j","response","false"
"","","","","","html-keyboard-response","314","580342","0.0-7.0-0.2","null","<div style=""font-size:60px;"">+</div>","null","fixation",""
"","","","","","video-keyboard-response","315","581992","0.0-7.0-1.2","1648","[""videos/slow_high_c6_white.mov""]","j","response","false"
"","","","","","html-keyboard-response","316","582994","0.0-7.0-0.3","null","<div style=""font-size:60px;"">+</div>","null","fixation",""
"","","","","","video-keyboard-response","317","584818","0.0-7.0-1.3","1823","[""videos/med_low_c10_white_mirror.mov""]","j","response","false"
"","","","","","html-keyboard-response","318","585820","0.0-7.0-0.4","null","<div style=""font-size:60px;"">+</div>","null","fixation",""
"","","","","","video-keyboard-response","319","587279","0.0-7.0-1.4","1458","[""videos/med_high_c5_white.mov""]","f","response","false"
"","","","","","html-keyboard-response","320","588031","0.0-7.0-0.5","null","<div style=""font-size:60px;"">+</div>","null","fixation",""
"","","","","","video-keyboard-response","321","590073","0.0-7.0-1.5","2041","[""videos/fast_med_c17_white.mov""]","j","response","false"
"","","","","","html-keyboard-response","322","591075","0.0-7.0-0.6","null","<div style=""font-size:60px;"">+</div>","null","fixation",""
"","","","","","video-keyboard-response","323","592498","0.0-7.0-1.6","1422","[""videos/med_low_c7_white_mirror.mov""]","f","response","false"
"","","","","","html-keyboard-response","324","593249","0.0-7.0-0.7","null","<div style=""font-size:60px;"">+</div>","null","fixation",""
"","","","","","video-keyboard-response","325","594735","0.0-7.0-1.7","1484","[""videos/slow_low_c4_white_mirror.mov""]","f","response","false"
"","","","","","html-keyboard-response","326","595737","0.0-7.0-0.8","null","<div style=""font-size:60px;"">+</div>","null","fixation",""
"","","","","","video-keyboard-response","327","597297","0.0-7.0-1.8","1558","[""videos/med_high_c8_white_mirror.mov""]","f","response","false"
"","","","","","html-keyboard-response","328","597798","0.0-7.0-0.9","null","<div style=""font-size:60px;"">+</div>","null","fixation",""
"","","","","","video-keyboard-response","329","599068","0.0-7.0-1.9","1268","[""videos/med_low_c2_white.mov""]","f","response","false"
"","","","","","html-keyboard-response","330","599570","0.0-7.0-0.10","null","<div style=""font-size:60px;"">+</div>","null","fixation",""
"","","","","","video-keyboard-response","331","600989","0.0-7.0-1.10","1418","[""videos/slow_med_c5_white_mirror.mov""]","j","response","false"
"","","","","","html-keyboard-response","332","678831","0.0-7.0-2.10-0.10","77840","<p>You can take a quick break now if you need it.</p>
      <p>Press the spacebar to continue.</p>"," ","",""
"","","","","","html-keyboard-response","333","679833","0.0-7.0-0.11","null","<div style=""font-size:60px;"">+</div>","null","fixation",""
"","","","","","video-keyboard-response","334","681158","0.0-7.0-1.11","1324","[""videos/slow_high_c4_white_mirror.mov""]","f","response","false"
"","","","","","html-keyboard-response","335","681911","0.0-7.0-0.12","null","<div style=""font-size:60px;"">+</div>","null","fixation",""
"","","","","","video-keyboard-response","336","683390","0.0-7.0-1.12","1478","[""videos/med_med_c8_white.mov""]","f","response","false"
"","","","","","html-keyboard-response","337","684142","0.0-7.0-0.13","null","<div style=""font-size:60px;"">+</div>","null","fixation",""
"","","","","","video-keyboard-response","338","685699","0.0-7.0-1.13","1556","[""videos/fast_high_c15_white.mov""]","j","response","false"
"","","","","","html-keyboard-response","339","686701","0.0-7.0-0.14","null","<div style=""font-size:60px;"">+</div>","null","fixation",""
"","","","","","video-keyboard-response","340","688015","0.0-7.0-1.14","1312","[""videos/slow_med_c1_white.mov""]","f","response","false"
"","","","","","html-keyboard-response","341","689016","0.0-7.0-0.15","null","<div style=""font-size:60px;"">+</div>","null","fixation",""
"","","","","","video-keyboard-response","342","690537","0.0-7.0-1.15","1519","[""videos/med_high_c13_white.mov""]","j","response","false"
"","","","","","html-keyboard-response","343","691038","0.0-7.0-0.16","null","<div style=""font-size:60px;"">+</div>","null","fixation",""
"","","","","","video-keyboard-response","344","692514","0.0-7.0-1.16","1475","[""videos/slow_low_c12_white_mirror.mov""]","j","response","false"
"","","","","","html-keyboard-response","345","693516","0.0-7.0-0.17","null","<div style=""font-size:60px;"">+</div>","null","fixation",""
"","","","","","video-keyboard-response","346","695081","0.0-7.0-1.17","1563","[""videos/fast_high_c17_white_mirror.mov""]","j","response","false"
"","","","","","html-keyboard-response","347","695583","0.0-7.0-0.18","null","<div style=""font-size:60px;"">+</div>","null","fixation",""
"","","","","","video-keyboard-response","348","696711","0.0-7.0-1.18","1127","[""videos/slow_low_c1_white.mov""]","f","response","false"
"","","","","","html-keyboard-response","349","697714","0.0-7.0-0.19","null","<div style=""font-size:60px;"">+</div>","null","fixation",""
"","","","","","video-keyboard-response","350","698952","0.0-7.0-1.19","1237","[""videos/fast_med_c6_white_mirror.mov""]","f","response","false"
"","","","","","html-keyboard-response","351","699704","0.0-7.0-0.20","null","<div style=""font-size:60px;"">+</div>","null","fixation",""
"","","","","","video-keyboard-response","352","701467","0.0-7.0-1.20","1762","[""videos/fast_med_c15_white.mov""]","f","response","false"
"","","","","","html-keyboard-response","353","702469","0.0-7.0-0.21","null","<div style=""font-size:60px;"">+</div>","null","fixation",""
"","","","","","video-keyboard-response","354","704061","0.0-7.0-1.21","1591","[""videos/med_low_c8_white.mov""]","f","response","false"
"","","","","","html-keyboard-response","355","704814","0.0-7.0-0.22","null","<div style=""font-size:60px;"">+</div>","null","fixation",""
"","","","","","video-keyboard-response","356","706064","0.0-7.0-1.22","1249","[""videos/med_med_c6_white.mov""]","f","response","false"
"","","","","","html-keyboard-response","357","706817","0.0-7.0-0.23","null","<div style=""font-size:60px;"">+</div>","null","fixation",""
"","","","","","video-keyboard-response","358","708109","0.0-7.0-1.23","1291","[""videos/fast_low_c5_white.mov""]","f","response","false"
"","","","","","html-keyboard-response","359","708861","0.0-7.0-0.24","null","<div style=""font-size:60px;"">+</div>","null","fixation",""
"","","","","","video-keyboard-response","360","710312","0.0-7.0-1.24","1450","[""videos/med_high_c3_white.mov""]","f","response","false"
"","","","","","html-keyboard-response","361","711064","0.0-7.0-0.25","null","<div style=""font-size:60px;"">+</div>","null","fixation",""
"","","","","","video-keyboard-response","362","712772","0.0-7.0-1.25","1707","[""videos/med_high_c7_white_mirror.mov""]","f","response","false"
"","","","","","html-keyboard-response","363","713775","0.0-7.0-0.26","null","<div style=""font-size:60px;"">+</div>","null","fixation",""
"","","","","","video-keyboard-response","364","715233","0.0-7.0-1.26","1457","[""videos/fast_high_c10_white_mirror.mov""]","f","response","false"
"","","","","","html-keyboard-response","365","716236","0.0-7.0-0.27","null","<div style=""font-size:60px;"">+</div>","null","fixation",""
"","","","","","video-keyboard-response","366","717930","0.0-7.0-1.27","1693","[""videos/fast_low_c16_white_mirror.mov""]","f","response","false"
"","","","","","html-keyboard-response","367","718932","0.0-7.0-0.28","null","<div style=""font-size:60px;"">+</div>","null","fixation",""
"","","","","","video-keyboard-response","368","720167","0.0-7.0-1.28","1234","[""videos/med_med_c1_white.mov""]","f","response","false"
"","","","","","html-keyboard-response","369","721170","0.0-7.0-0.29","null","<div style=""font-size:60px;"">+</div>","null","fixation",""
"","","","","","video-keyboard-response","370","722875","0.0-7.0-1.29","1704","[""videos/med_high_c10_white_mirror.mov""]","f","response","false"
"","","","","","html-keyboard-response","371","723375","0.0-7.0-0.30","null","<div style=""font-size:60px;"">+</div>","null","fixation",""
"","","","","","video-keyboard-response","372","724709","0.0-7.0-1.30","1332","[""videos/slow_low_c3_white.mov""]","f","response","false"
"","","","","","html-keyboard-response","373","761359","0.0-7.0-2.30-0.30","36649","<p>You can take a quick break now if you need it.</p>
      <p>Press the spacebar to continue.</p>"," ","",""
"","","","","","html-keyboard-response","374","762111","0.0-7.0-0.31","null","<div style=""font-size:60px;"">+</div>","null","fixation",""
"","","","","","video-keyboard-response","375","763411","0.0-7.0-1.31","1299","[""videos/fast_med_c11_white_mirror.mov""]","f","response","false"
"","","","","","html-keyboard-response","376","764164","0.0-7.0-0.32","null","<div style=""font-size:60px;"">+</div>","null","fixation",""
"","","","","","video-keyboard-response","377","765685","0.0-7.0-1.32","1520","[""videos/med_low_c9_white.mov""]","f","response","false"
"","","","","","html-keyboard-response","378","766688","0.0-7.0-0.33","null","<div style=""font-size:60px;"">+</div>","null","fixation",""
"","","","","","video-keyboard-response","379","768153","0.0-7.0-1.33","1464","[""videos/med_low_c12_white_mirror.mov""]","j","response","false"
"","","","","","html-keyboard-response","380","768655","0.0-7.0-0.34","null","<div style=""font-size:60px;"">+</div>","null","fixation",""
"","","","","","video-keyboard-response","381","770218","0.0-7.0-1.34","1562","[""videos/fast_low_c17_white.mov""]","f","response","false"
"","","","","","html-keyboard-response","382","770971","0.0-7.0-0.35","null","<div style=""font-size:60px;"">+</div>","null","fixation",""
"","","","","","video-keyboard-response","383","772281","0.0-7.0-1.35","1308","[""videos/slow_med_c7_white_mirror.mov""]","j","response","false"
"","","","","","html-keyboard-response","384","772783","0.0-7.0-0.36","null","<div style=""font-size:60px;"">+</div>","null","fixation",""
"","","","","","video-keyboard-response","385","773948","0.0-7.0-1.36","1164","[""videos/fast_high_c4_white.mov""]","f","response","false"
"","","","","","html-keyboard-response","386","774700","0.0-7.0-0.37","null","<div style=""font-size:60px;"">+</div>","null","fixation",""
"","","","","","video-keyboard-response","387","776047","0.0-7.0-1.37","1345","[""videos/med_low_c5_white_mirror.mov""]","f","response","false"
"","","","","","html-keyboard-response","388","776548","0.0-7.0-0.38","null","<div style=""font-size:60px;"">+</div>","null","fixation",""
"","","","","","video-keyboard-response","389","778101","0.0-7.0-1.38","1551","[""videos/fast_low_c14_white_mirror.mov""]","f","response","false"
"","","","","","html-keyboard-response","390","779103","0.0-7.0-0.39","null","<div style=""font-size:60px;"">+</div>","null","fixation",""
"","","","","","video-keyboard-response","391","780535","0.0-7.0-1.39","1431","[""videos/fast_low_c12_white_mirror.mov""]","f","response","false"
"","","","","","html-keyboard-response","392","781538","0.0-7.0-0.40","null","<div style=""font-size:60px;"">+</div>","null","fixation",""
"","","","","","video-keyboard-response","393","782692","0.0-7.0-1.40","1153","[""videos/med_med_c4_white_mirror.mov""]","f","response","false"
"","","","","","html-keyboard-response","394","783694","0.0-7.0-0.41","null","<div style=""font-size:60px;"">+</div>","null","fixation",""
"","","","","","video-keyboard-response","395","784932","0.0-7.0-1.41","1236","[""videos/slow_high_c13_white.mov""]","j","response","false"
"","","","","","html-keyboard-response","396","785934","0.0-7.0-0.42","null","<div style=""font-size:60px;"">+</div>","null","fixation",""
"","","","","","video-keyboard-response","397","787364","0.0-7.0-1.42","1429","[""videos/med_low_c16_white.mov""]","j","response","false"
"","","","","","html-keyboard-response","398","787866","0.0-7.0-0.43","null","<div style=""font-size:60px;"">+</div>","null","fixation",""
"","","","","","video-keyboard-response","399","789389","0.0-7.0-1.43","1522","[""videos/fast_low_c15_white.mov""]","f","response","false"
"","","","","","html-keyboard-response","400","789891","0.0-7.0-0.44","null","<div style=""font-size:60px;"">+</div>","null","fixation",""
"","","","","","video-keyboard-response","401","791178","0.0-7.0-1.44","1286","[""videos/fast_high_c11_white.mov""]","f","response","false"
"","","","","","html-keyboard-response","402","792180","0.0-7.0-0.45","null","<div style=""font-size:60px;"">+</div>","null","fixation",""
"","","","","","video-keyboard-response","403","793270","0.0-7.0-1.45","1088","[""videos/med_high_c1_white.mov""]","f","response","false"
"","","","","","html-keyboard-response","404","794272","0.0-7.0-0.46","null","<div style=""font-size:60px;"">+</div>","null","fixation",""
"","","","","","video-keyboard-response","405","795508","0.0-7.0-1.46","1235","[""videos/fast_med_c13_white.mov""]","f","response","false"
"","","","","","html-keyboard-response","406","796260","0.0-7.0-0.47","null","<div style=""font-size:60px;"">+</div>","null","fixation",""
"","","","","","video-keyboard-response","407","797692","0.0-7.0-1.47","1430","[""videos/slow_high_c3_white_mirror.mov""]","f","response","false"
"","","","","","html-keyboard-response","408","798444","0.0-7.0-0.48","null","<div style=""font-size:60px;"">+</div>","null","fixation",""
"","","","","","video-keyboard-response","409","799694","0.0-7.0-1.48","1249","[""videos/fast_high_c8_white_mirror.mov""]","f","response","false"
"","","","","","html-keyboard-response","410","800196","0.0-7.0-0.49","null","<div style=""font-size:60px;"">+</div>","null","fixation",""
"","","","","","video-keyboard-response","411","802480","0.0-7.0-1.49","2283","[""videos/slow_med_c10_white.mov""]","j","response","false"
"","","","","","html-keyboard-response","412","803233","0.0-7.0-0.50","null","<div style=""font-size:60px;"">+</div>","null","fixation",""
"","","","","","video-keyboard-response","413","804924","0.0-7.0-1.50","1690","[""videos/med_med_c14_white_mirror.mov""]","j","response","false"
"","","","","","html-keyboard-response","414","817682","0.0-7.0-2.50-0.50","12757","<p>You can take a quick break now if you need it.</p>
      <p>Press the spacebar to continue.</p>"," ","",""
"","","","","","html-keyboard-response","415","818433","0.0-7.0-0.51","null","<div style=""font-size:60px;"">+</div>","null","fixation",""
"","","","","","video-keyboard-response","416","820116","0.0-7.0-1.51","1682","[""videos/med_med_c11_white_mirror.mov""]","j","response","false"
"","","","","","html-keyboard-response","417","820617","0.0-7.0-0.52","null","<div style=""font-size:60px;"">+</div>","null","fixation",""
"","","","","","video-keyboard-response","418","822165","0.0-7.0-1.52","1546","[""videos/med_med_c9_white_mirror.mov""]","j","response","false"
"","","","","","html-keyboard-response","419","822666","0.0-7.0-0.53","null","<div style=""font-size:60px;"">+</div>","null","fixation",""
"","","","","","video-keyboard-response","420","824166","0.0-7.0-1.53","1499","[""videos/fast_med_c14_white.mov""]","f","response","false"
"","","","","","html-keyboard-response","421","824917","0.0-7.0-0.54","null","<div style=""font-size:60px;"">+</div>","null","fixation",""
"","","","","","video-keyboard-response","422","826519","0.0-7.0-1.54","1601","[""videos/fast_med_c16_white_mirror.mov""]","j","response","false"
"","","","","","html-keyboard-response","423","827521","0.0-7.0-0.55","null","<div style=""font-size:60px;"">+</div>","null","fixation",""
"","","","","","video-keyboard-response","424","828979","0.0-7.0-1.55","1456","[""videos/slow_med_c4_white.mov""]","f","response","false"
"","","","","","html-keyboard-response","425","829982","0.0-7.0-0.56","null","<div style=""font-size:60px;"">+</div>","null","fixation",""
"","","","","","video-keyboard-response","426","831299","0.0-7.0-1.56","1316","[""videos/slow_low_c2_white.mov""]","f","response","false"
"","","","","","html-keyboard-response","427","831800","0.0-7.0-0.57","null","<div style=""font-size:60px;"">+</div>","null","fixation",""
"","","","","","video-keyboard-response","428","832988","0.0-7.0-1.57","1186","[""videos/slow_med_c2_white_mirror.mov""]","f","response","false"
"","","","","","html-keyboard-response","429","833989","0.0-7.0-0.58","null","<div style=""font-size:60px;"">+</div>","null","fixation",""
"","","","","","video-keyboard-response","430","835350","0.0-7.0-1.58","1359","[""videos/slow_high_c2_white.mov""]","f","response","false"
"","","","","","html-keyboard-response","431","836352","0.0-7.0-0.59","null","<div style=""font-size:60px;"">+</div>","null","fixation",""
"","","","","","video-keyboard-response","432","837863","0.0-7.0-1.59","1510","[""videos/fast_high_c13_white.mov""]","j","response","false"
"","","","","","html-keyboard-response","433","838615","0.0-7.0-0.60","null","<div style=""font-size:60px;"">+</div>","null","fixation",""
"","","","","","video-keyboard-response","434","840054","0.0-7.0-1.60","1438","[""videos/slow_low_c7_white.mov""]","j","response","false"
"","","","","","html-keyboard-response","435","840806","0.0-7.0-0.61","null","<div style=""font-size:60px;"">+</div>","null","fixation",""
"","","","","","video-keyboard-response","436","842141","0.0-7.0-1.61","1333","[""videos/fast_high_c12_white_mirror.mov""]","f","response","false"
"","","","","","html-keyboard-response","437","843143","0.0-7.0-0.62","null","<div style=""font-size:60px;"">+</div>","null","fixation",""
"","","","","","video-keyboard-response","438","844431","0.0-7.0-1.62","1286","[""videos/slow_med_c3_white.mov""]","f","response","false"
"","","","","","html-keyboard-response","439","845432","0.0-7.0-0.63","null","<div style=""font-size:60px;"">+</div>","null","fixation",""
"","","","","","video-keyboard-response","440","846621","0.0-7.0-1.63","1187","[""videos/slow_high_c1_white_mirror.mov""]","f","response","false"
"","","","","","html-keyboard-response","441","847622","0.0-7.0-0.64","null","<div style=""font-size:60px;"">+</div>","null","fixation",""
"","","","","","video-keyboard-response","442","848881","0.0-7.0-1.64","1258","[""videos/med_high_c6_white_mirror.mov""]","f","response","false"
"","","","","","html-keyboard-response","443","862856","0.0-8.0","13974","<p>Thank you for completing the experiment.</p>"," ","",""
