"success","timeout","failed_images","failed_audio","failed_video","trial_type","trial_index","time_elapsed","internal_node_id","rt","stimulus","response","task","test_trial"
"true","false","[]","[]","[]","preload","0","1238","0.0-0.0","","","","",""
"","","","","","html-keyboard-response","1","19946","0.0-1.0","18706","Welcome to the experiment. Press any key to begin."," ","",""
"","","","","","html-keyboard-response","2","51630","0.0-2.0","31683","
        <p>In this experiment, you will be shown short movies containing two objects. One of the objects will be moving toward the other.</p>
        <p>In these movies, the moving object either collides with the stationary object, or it comes to a stop before reaching the stationary object.
          However, you will be shown a clipped version of the movie that does not reveal the ending.</p> 
        <p>Please watch each clip carefully. Then predict whether or not the two objects will collide later on in the video.</p>
        <p>Press the <b>""F""</b> key for <b>yes</b>, the objects will collide.</p> 
        <p>Press the <b>""J""</b> key for <b>no</b>, the objects will not collide.</p>
        <p>Press any key to start.</p>
      "," ","",""
"","","","","","html-keyboard-response","3","53633","0.0-3.0-0.0","null","<div style=""font-size:60px;"">+</div>","null","fixation",""
"","","","","","video-keyboard-response","4","55214","0.0-3.0-1.0","1579","[""videos/slow_med_c7_white_mirror.mov""]","f","response","false"
"","","","","","html-keyboard-response","5","55966","0.0-3.0-0.1","null","<div style=""font-size:60px;"">+</div>","null","fixation",""
"","","","","","video-keyboard-response","6","57489","0.0-3.0-1.1","1521","[""videos/slow_low_c5_white_mirror.mov""]","f","response","false"
"","","","","","html-keyboard-response","7","58491","0.0-3.0-0.2","null","<div style=""font-size:60px;"">+</div>","null","fixation",""
"","","","","","video-keyboard-response","8","59714","0.0-3.0-1.2","1222","[""videos/med_med_c8_white.mov""]","f","response","false"
"","","","","","html-keyboard-response","9","60716","0.0-3.0-0.3","null","<div style=""font-size:60px;"">+</div>","null","fixation",""
"","","","","","video-keyboard-response","10","62196","0.0-3.0-1.3","1479","[""videos/fast_med_c16_white_mirror.mov""]","f","response","false"
"","","","","","html-keyboard-response","11","62698","0.0-3.0-0.4","null","<div style=""font-size:60px;"">+</div>","null","fixation",""
"","","","","","video-keyboard-response","12","64115","0.0-3.0-1.4","1416","[""videos/slow_high_c6_white.mov""]","j","response","false"
"","","","","","html-keyboard-response","13","65117","0.0-3.0-0.5","null","<div style=""font-size:60px;"">+</div>","null","fixation",""
"","","","","","video-keyboard-response","14","66559","0.0-3.0-1.5","1441","[""videos/fast_low_c5_white.mov""]","f","response","false"
"","","","","","html-keyboard-response","15","67061","0.0-3.0-0.6","null","<div style=""font-size:60px;"">+</div>","null","fixation",""
"","","","","","video-keyboard-response","16","68505","0.0-3.0-1.6","1442","[""videos/fast_low_c12_white.mov""]","f","response","false"
"","","","","","html-keyboard-response","17","69005","0.0-3.0-0.7","null","<div style=""font-size:60px;"">+</div>","null","fixation",""
"","","","","","video-keyboard-response","18","70650","0.0-3.0-1.7","1643","[""videos/fast_high_c12_white.mov""]","f","response","false"
"","","","","","html-keyboard-response","19","71652","0.0-3.0-0.8","null","<div style=""font-size:60px;"">+</div>","null","fixation",""
"","","","","","video-keyboard-response","20","73196","0.0-3.0-1.8","1543","[""videos/med_low_c9_white.mov""]","j","response","false"
"","","","","","html-keyboard-response","21","73948","0.0-3.0-0.9","null","<div style=""font-size:60px;"">+</div>","null","fixation",""
"","","","","","video-keyboard-response","22","75277","0.0-3.0-1.9","1328","[""videos/med_high_c1_white.mov""]","f","response","false"
"","","","","","html-keyboard-response","23","75779","0.0-3.0-0.10","null","<div style=""font-size:60px;"">+</div>","null","fixation",""
"","","","","","video-keyboard-response","24","77139","0.0-3.0-1.10","1359","[""videos/slow_med_c1_white_mirror.mov""]","f","response","false"
"","","","","","html-keyboard-response","25","78141","0.0-3.0-0.11","null","<div style=""font-size:60px;"">+</div>","null","fixation",""
"","","","","","video-keyboard-response","26","79581","0.0-3.0-1.11","1440","[""videos/fast_low_c15_white_mirror.mov""]","f","response","false"
"","","","","","html-keyboard-response","27","80083","0.0-3.0-0.12","null","<div style=""font-size:60px;"">+</div>","null","fixation",""
"","","","","","video-keyboard-response","28","81488","0.0-3.0-1.12","1403","[""videos/med_low_c10_white_mirror.mov""]","f","response","false"
"","","","","","html-keyboard-response","29","82489","0.0-3.0-0.13","null","<div style=""font-size:60px;"">+</div>","null","fixation",""
"","","","","","video-keyboard-response","30","83833","0.0-3.0-1.13","1343","[""videos/fast_high_c15_white_mirror.mov""]","f","response","false"
"","","","","","html-keyboard-response","31","84584","0.0-3.0-0.14","null","<div style=""font-size:60px;"">+</div>","null","fixation",""
"","","","","","video-keyboard-response","32","85974","0.0-3.0-1.14","1389","[""videos/slow_low_c7_white.mov""]","j","response","false"
"","","","","","html-keyboard-response","33","86726","0.0-3.0-0.15","null","<div style=""font-size:60px;"">+</div>","null","fixation",""
"","","","","","video-keyboard-response","34","87788","0.0-3.0-1.15","1060","[""videos/slow_high_c3_white_mirror.mov""]","f","response","false"
"","","","","","html-keyboard-response","35","88290","0.0-3.0-0.16","null","<div style=""font-size:60px;"">+</div>","null","fixation",""
"","","","","","video-keyboard-response","36","89467","0.0-3.0-1.16","1176","[""videos/med_med_c11_white.mov""]","f","response","false"
"","","","","","html-keyboard-response","37","89967","0.0-3.0-0.17","null","<div style=""font-size:60px;"">+</div>","null","fixation",""
"","","","","","video-keyboard-response","38","91430","0.0-3.0-1.17","1461","[""videos/slow_low_c3_white.mov""]","f","response","false"
"","","","","","html-keyboard-response","39","92432","0.0-3.0-0.18","null","<div style=""font-size:60px;"">+</div>","null","fixation",""
"","","","","","video-keyboard-response","40","93833","0.0-3.0-1.18","1400","[""videos/fast_med_c14_white.mov""]","f","response","false"
"","","","","","html-keyboard-response","41","94334","0.0-3.0-0.19","null","<div style=""font-size:60px;"">+</div>","null","fixation",""
"","","","","","video-keyboard-response","42","95815","0.0-3.0-1.19","1479","[""videos/slow_high_c4_white.mov""]","f","response","false"
"","","","","","html-keyboard-response","43","97108","0.0-3.0-2.19-0.19","1293","<p>You can take a quick break now if you need it.</p>
      <p>Press the spacebar to continue.</p>"," ","",""
"","","","","","html-keyboard-response","44","97860","0.0-3.0-0.20","null","<div style=""font-size:60px;"">+</div>","null","fixation",""
"","","","","","video-keyboard-response","45","99363","0.0-3.0-1.20","1502","[""videos/fast_low_c17_white.mov""]","f","response","false"
"","","","","","html-keyboard-response","46","100365","0.0-3.0-0.21","null","<div style=""font-size:60px;"">+</div>","null","fixation",""
"","","","","","video-keyboard-response","47","101461","0.0-3.0-1.21","1094","[""videos/slow_low_c4_white.mov""]","f","response","false"
"","","","","","html-keyboard-response","48","101961","0.0-3.0-0.22","null","<div style=""font-size:60px;"">+</div>","null","fixation",""
"","","","","","video-keyboard-response","49","103331","0.0-3.0-1.22","1369","[""videos/fast_high_c11_white.mov""]","f","response","false"
"","","","","","html-keyboard-response","50","103832","0.0-3.0-0.23","null","<div style=""font-size:60px;"">+</div>","null","fixation",""
"","","","","","video-keyboard-response","51","105185","0.0-3.0-1.23","1352","[""videos/fast_med_c6_white_mirror.mov""]","f","response","false"
"","","","","","html-keyboard-response","52","106187","0.0-3.0-0.24","null","<div style=""font-size:60px;"">+</div>","null","fixation",""
"","","","","","video-keyboard-response","53","107570","0.0-3.0-1.24","1381","[""videos/slow_med_c10_white_mirror.mov""]","j","response","false"
"","","","","","html-keyboard-response","54","108323","0.0-3.0-0.25","null","<div style=""font-size:60px;"">+</div>","null","fixation",""
"","","","","","video-keyboard-response","55","109922","0.0-3.0-1.25","1598","[""videos/med_low_c5_white.mov""]","f","response","false"
"","","","","","html-keyboard-response","56","110674","0.0-3.0-0.26","null","<div style=""font-size:60px;"">+</div>","null","fixation",""
"","","","","","video-keyboard-response","57","112396","0.0-3.0-1.26","1721","[""videos/med_high_c7_white.mov""]","j","response","false"
"","","","","","html-keyboard-response","58","112897","0.0-3.0-0.27","null","<div style=""font-size:60px;"">+</div>","null","fixation",""
"","","","","","video-keyboard-response","59","114439","0.0-3.0-1.27","1540","[""videos/med_med_c9_white_mirror.mov""]","f","response","false"
"","","","","","html-keyboard-response","60","115191","0.0-3.0-0.28","null","<div style=""font-size:60px;"">+</div>","null","fixation",""
"","","","","","video-keyboard-response","61","116583","0.0-3.0-1.28","1390","[""videos/slow_high_c1_white.mov""]","f","response","false"
"","","","","","html-keyboard-response","62","117584","0.0-3.0-0.29","null","<div style=""font-size:60px;"">+</div>","null","fixation",""
"","","","","","video-keyboard-response","63","118921","0.0-3.0-1.29","1336","[""videos/med_low_c2_white_mirror.mov""]","f","response","false"
"","","","","","html-keyboard-response","64","119423","0.0-3.0-0.30","null","<div style=""font-size:60px;"">+</div>","null","fixation",""
"","","","","","video-keyboard-response","65","120880","0.0-3.0-1.30","1455","[""videos/fast_high_c10_white.mov""]","f","response","false"
"","","","","","html-keyboard-response","66","121632","0.0-3.0-0.31","null","<div style=""font-size:60px;"">+</div>","null","fixation",""
"","","","","","video-keyboard-response","67","122976","0.0-3.0-1.31","1343","[""videos/med_med_c1_white_mirror.mov""]","f","response","false"
"","","","","","html-keyboard-response","68","123729","0.0-3.0-0.32","null","<div style=""font-size:60px;"">+</div>","null","fixation",""
"","","","","","video-keyboard-response","69","125342","0.0-3.0-1.32","1612","[""videos/fast_med_c13_white.mov""]","f","response","false"
"","","","","","html-keyboard-response","70","126093","0.0-3.0-0.33","null","<div style=""font-size:60px;"">+</div>","null","fixation",""
"","","","","","video-keyboard-response","71","127573","0.0-3.0-1.33","1479","[""videos/slow_med_c5_white.mov""]","j","response","false"
"","","","","","html-keyboard-response","72","128074","0.0-3.0-0.34","null","<div style=""font-size:60px;"">+</div>","null","fixation",""
"","","","","","video-keyboard-response","73","129755","0.0-3.0-1.34","1679","[""videos/med_high_c13_white_mirror.mov""]","j","response","false"
"","","","","","html-keyboard-response","74","130507","0.0-3.0-0.35","null","<div style=""font-size:60px;"">+</div>","null","fixation",""
"","","","","","video-keyboard-response","75","131904","0.0-3.0-1.35","1395","[""videos/med_low_c7_white_mirror.mov""]","f","response","false"
"","","","","","html-keyboard-response","76","132406","0.0-3.0-0.36","null","<div style=""font-size:60px;"">+</div>","null","fixation",""
"","","","","","video-keyboard-response","77","133824","0.0-3.0-1.36","1417","[""videos/slow_med_c2_white.mov""]","f","response","false"
"","","","","","html-keyboard-response","78","134826","0.0-3.0-0.37","null","<div style=""font-size:60px;"">+</div>","null","fixation",""
"","","","","","video-keyboard-response","79","136563","0.0-3.0-1.37","1735","[""videos/slow_low_c2_white_mirror.mov""]","f","response","false"
"","","","","","html-keyboard-response","80","137316","0.0-3.0-0.38","null","<div style=""font-size:60px;"">+</div>","null","fixation",""
"","","","","","video-keyboard-response","81","139186","0.0-3.0-1.38","1869","[""videos/med_low_c8_white.mov""]","f","response","false"
"","","","","","html-keyboard-response","82","139688","0.0-3.0-0.39","null","<div style=""font-size:60px;"">+</div>","null","fixation",""
"","","","","","video-keyboard-response","83","141071","0.0-3.0-1.39","1382","[""videos/med_high_c3_white_mirror.mov""]","f","response","false"
"","","","","","html-keyboard-response","84","141991","0.0-3.0-2.39-0.39","921","<p>You can take a quick break now if you need it.</p>
      <p>Press the spacebar to continue.</p>"," ","",""
"","","","","","html-keyboard-response","85","142994","0.0-3.0-0.40","null","<div style=""font-size:60px;"">+</div>","null","fixation",""
"","","","","","video-keyboard-response","86","144651","0.0-3.0-1.40","1656","[""videos/med_high_c6_white_mirror.mov""]","f","response","false"
"","","","","","html-keyboard-response","87","145403","0.0-3.0-0.41","null","<div style=""font-size:60px;"">+</div>","null","fixation",""
"","","","","","video-keyboard-response","88","146911","0.0-3.0-1.41","1507","[""videos/med_med_c6_white.mov""]","f","response","false"
"","","","","","html-keyboard-response","89","147413","0.0-3.0-0.42","null","<div style=""font-size:60px;"">+</div>","null","fixation",""
"","","","","","video-keyboard-response","90","148922","0.0-3.0-1.42","1508","[""videos/med_high_c8_white_mirror.mov""]","f","response","false"
"","","","","","html-keyboard-response","91","149675","0.0-3.0-0.43","null","<div style=""font-size:60px;"">+</div>","null","fixation",""
"","","","","","video-keyboard-response","92","151123","0.0-3.0-1.43","1447","[""videos/med_low_c16_white_mirror.mov""]","j","response","false"
"","","","","","html-keyboard-response","93","151875","0.0-3.0-0.44","null","<div style=""font-size:60px;"">+</div>","null","fixation",""
"","","","","","video-keyboard-response","94","153481","0.0-3.0-1.44","1604","[""videos/slow_med_c4_white.mov""]","j","response","false"
"","","","","","html-keyboard-response","95","154482","0.0-3.0-0.45","null","<div style=""font-size:60px;"">+</div>","null","fixation",""
"","","","","","video-keyboard-response","96","156428","0.0-3.0-1.45","1944","[""videos/fast_high_c17_white_mirror.mov""]","f","response","false"
"","","","","","html-keyboard-response","97","157429","0.0-3.0-0.46","null","<div style=""font-size:60px;"">+</div>","null","fixation",""
"","","","","","video-keyboard-response","98","159118","0.0-3.0-1.46","1687","[""videos/med_high_c5_white.mov""]","f","response","false"
"","","","","","html-keyboard-response","99","159619","0.0-3.0-0.47","null","<div style=""font-size:60px;"">+</div>","null","fixation",""
"","","","","","video-keyboard-response","100","161485","0.0-3.0-1.47","1864","[""videos/fast_med_c17_white_mirror.mov""]","f","response","false"
"","","","","","html-keyboard-response","101","162237","0.0-3.0-0.48","null","<div style=""font-size:60px;"">+</div>","null","fixation",""
"","","","","","video-keyboard-response","102","163839","0.0-3.0-1.48","1600","[""videos/med_med_c4_white.mov""]","f","response","false"
"","","","","","html-keyboard-response","103","164591","0.0-3.0-0.49","null","<div style=""font-size:60px;"">+</div>","null","fixation",""
"","","","","","video-keyboard-response","104","166092","0.0-3.0-1.49","1499","[""videos/slow_high_c2_white_mirror.mov""]","f","response","false"
"","","","","","html-keyboard-response","105","167094","0.0-3.0-0.50","null","<div style=""font-size:60px;"">+</div>","null","fixation",""
"","","","","","video-keyboard-response","106","168499","0.0-3.0-1.50","1404","[""videos/slow_med_c3_white.mov""]","f","response","false"
"","","","","","html-keyboard-response","107","169001","0.0-3.0-0.51","null","<div style=""font-size:60px;"">+</div>","null","fixation",""
"","","","","","video-keyboard-response","108","170797","0.0-3.0-1.51","1795","[""videos/med_med_c7_white_mirror.mov""]","f","response","false"
"","","","","","html-keyboard-response","109","171799","0.0-3.0-0.52","null","<div style=""font-size:60px;"">+</div>","null","fixation",""
"","","","","","video-keyboard-response","110","173335","0.0-3.0-1.52","1534","[""videos/fast_low_c14_white_mirror.mov""]","f","response","false"
"","","","","","html-keyboard-response","111","174088","0.0-3.0-0.53","null","<div style=""font-size:60px;"">+</div>","null","fixation",""
"","","","","","video-keyboard-response","112","175685","0.0-3.0-1.53","1596","[""videos/slow_high_c13_white_mirror.mov""]","j","response","false"
"","","","","","html-keyboard-response","113","176687","0.0-3.0-0.54","null","<div style=""font-size:60px;"">+</div>","null","fixation",""
"","","","","","video-keyboard-response","114","178051","0.0-3.0-1.54","1362","[""videos/slow_low_c1_white_mirror.mov""]","f","response","false"
"","","","","","html-keyboard-response","115","179053","0.0-3.0-0.55","null","<div style=""font-size:60px;"">+</div>","null","fixation",""
"","","","","","video-keyboard-response","116","180770","0.0-3.0-1.55","1715","[""videos/fast_high_c13_white.mov""]","f","response","false"
"","","","","","html-keyboard-response","117","181271","0.0-3.0-0.56","null","<div style=""font-size:60px;"">+</div>","null","fixation",""
"","","","","","video-keyboard-response","118","183151","0.0-3.0-1.56","1878","[""videos/fast_med_c11_white.mov""]","f","response","false"
"","","","","","html-keyboard-response","119","184153","0.0-3.0-0.57","null","<div style=""font-size:60px;"">+</div>","null","fixation",""
"","","","","","video-keyboard-response","120","185693","0.0-3.0-1.57","1539","[""videos/med_low_c12_white.mov""]","j","response","false"
"","","","","","html-keyboard-response","121","186696","0.0-3.0-0.58","null","<div style=""font-size:60px;"">+</div>","null","fixation",""
"","","","","","video-keyboard-response","122","188207","0.0-3.0-1.58","1510","[""videos/slow_low_c12_white.mov""]","j","response","false"
"","","","","","html-keyboard-response","123","188959","0.0-3.0-0.59","null","<div style=""font-size:60px;"">+</div>","null","fixation",""
"","","","","","video-keyboard-response","124","190515","0.0-3.0-1.59","1554","[""videos/med_high_c10_white.mov""]","j","response","false"
"","","","","","html-keyboard-response","125","191372","0.0-3.0-2.59-0.59","857","<p>You can take a quick break now if you need it.</p>
      <p>Press the spacebar to continue.</p>"," ","",""
"","","","","","html-keyboard-response","126","192374","0.0-3.0-0.60","null","<div style=""font-size:60px;"">+</div>","null","fixation",""
"","","","","","video-keyboard-response","127","193797","0.0-3.0-1.60","1422","[""videos/med_med_c14_white_mirror.mov""]","j","response","false"
"","","","","","html-keyboard-response","128","194799","0.0-3.0-0.61","null","<div style=""font-size:60px;"">+</div>","null","fixation",""
"","","","","","video-keyboard-response","129","196012","0.0-3.0-1.61","1211","[""videos/fast_high_c8_white_mirror.mov""]","f","response","false"
"","","","","","html-keyboard-response","130","196764","0.0-3.0-0.62","null","<div style=""font-size:60px;"">+</div>","null","fixation",""
"","","","","","video-keyboard-response","131","198421","0.0-3.0-1.62","1655","[""videos/fast_low_c16_white_mirror.mov""]","f","response","false"
"","","","","","html-keyboard-response","132","198922","0.0-3.0-0.63","null","<div style=""font-size:60px;"">+</div>","null","fixation",""
"","","","","","video-keyboard-response","133","200242","0.0-3.0-1.63","1318","[""videos/fast_high_c4_white_mirror.mov""]","f","response","false"
"","","","","","html-keyboard-response","134","200743","0.0-3.0-0.64","null","<div style=""font-size:60px;"">+</div>","null","fixation",""
"","","","","","video-keyboard-response","135","202370","0.0-3.0-1.64","1625","[""videos/fast_med_c15_white.mov""]","f","response","false"
"","","","","","html-keyboard-response","136","203287","0.0-4.0","917","<p>You can take a quick break now if you need it.</p>
      <p>Press the spacebar to continue.</p>"," ","",""
"","","","","","html-keyboard-response","137","204040","0.0-5.0-0.0","null","<div style=""font-size:60px;"">+</div>","null","fixation",""
"","","","","","video-keyboard-response","138","206161","0.0-5.0-1.0","2120","[""videos/med_high_c3_teal_mirror.mov""]","f","response","false"
"","","","","","html-keyboard-response","139","207163","0.0-5.0-0.1","null","<div style=""font-size:60px;"">+</div>","null","fixation",""
"","","","","","video-keyboard-response","140","209168","0.0-5.0-1.1","2003","[""videos/slow_low_c4_pink_mirror.mov""]","f","response","false"
"","","","","","html-keyboard-response","141","209920","0.0-5.0-0.2","null","<div style=""font-size:60px;"">+</div>","null","fixation",""
"","","","","","video-keyboard-response","142","211339","0.0-5.0-1.2","1418","[""videos/slow_low_c1_teal.mov""]","f","response","false"
"","","","","","html-keyboard-response","143","211841","0.0-5.0-0.3","null","<div style=""font-size:60px;"">+</div>","null","fixation",""
"","","","","","video-keyboard-response","144","213329","0.0-5.0-1.3","1487","[""videos/slow_low_c7_tan.mov""]","f","response","false"
"","","","","","html-keyboard-response","145","214082","0.0-5.0-0.4","null","<div style=""font-size:60px;"">+</div>","null","fixation",""
"","","","","","video-keyboard-response","146","215734","0.0-5.0-1.4","1651","[""videos/fast_low_c17_teal.mov""]","f","response","false"
"","","","","","html-keyboard-response","147","216236","0.0-5.0-0.5","null","<div style=""font-size:60px;"">+</div>","null","fixation",""
"","","","","","video-keyboard-response","148","218061","0.0-5.0-1.5","1824","[""videos/fast_med_c16_tan_mirror.mov""]","j","response","false"
"","","","","","html-keyboard-response","149","219063","0.0-5.0-0.6","null","<div style=""font-size:60px;"">+</div>","null","fixation",""
"","","","","","video-keyboard-response","150","220736","0.0-5.0-1.6","1672","[""videos/slow_high_c6_purple_mirror.mov""]","j","response","false"
"","","","","","html-keyboard-response","151","221238","0.0-5.0-0.7","null","<div style=""font-size:60px;"">+</div>","null","fixation",""
"","","","","","video-keyboard-response","152","224639","0.0-5.0-1.7","3400","[""videos/med_high_c13_teal_mirror.mov""]","f","response","false"
"","","","","","html-keyboard-response","153","225391","0.0-5.0-0.8","null","<div style=""font-size:60px;"">+</div>","null","fixation",""
"","","","","","video-keyboard-response","154","227332","0.0-5.0-1.8","1939","[""videos/med_med_c1_tan.mov""]","f","response","false"
"","","","","","html-keyboard-response","155","228334","0.0-5.0-0.9","null","<div style=""font-size:60px;"">+</div>","null","fixation",""
"","","","","","video-keyboard-response","156","230096","0.0-5.0-1.9","1760","[""videos/fast_high_c11_pink_mirror.mov""]","f","response","false"
"","","","","","html-keyboard-response","157","230848","0.0-5.0-0.10","null","<div style=""font-size:60px;"">+</div>","null","fixation",""
"","","","","","video-keyboard-response","158","232431","0.0-5.0-1.10","1581","[""videos/med_high_c1_tan_mirror.mov""]","f","response","false"
"","","","","","html-keyboard-response","159","233183","0.0-5.0-0.11","null","<div style=""font-size:60px;"">+</div>","null","fixation",""
"","","","","","video-keyboard-response","160","234676","0.0-5.0-1.11","1491","[""videos/slow_low_c1_tan_mirror.mov""]","f","response","false"
"","","","","","html-keyboard-response","161","235177","0.0-5.0-0.12","null","<div style=""font-size:60px;"">+</div>","null","fixation",""
"","","","","","video-keyboard-response","162","236805","0.0-5.0-1.12","1627","[""videos/slow_high_c2_pink_mirror.mov""]","f","response","false"
"","","","","","html-keyboard-response","163","237307","0.0-5.0-0.13","null","<div style=""font-size:60px;"">+</div>","null","fixation",""
"","","","","","video-keyboard-response","164","238784","0.0-5.0-1.13","1476","[""videos/slow_med_c2_tan.mov""]","f","response","false"
"","","","","","html-keyboard-response","165","239786","0.0-5.0-0.14","null","<div style=""font-size:60px;"">+</div>","null","fixation",""
"","","","","","video-keyboard-response","166","241250","0.0-5.0-1.14","1462","[""videos/fast_low_c17_purple_mirror.mov""]","f","response","false"
"","","","","","html-keyboard-response","167","242473","0.0-5.0-2.14-0.14","1222","<p>You can take a quick break now if you need it.</p>
      <p>Press the spacebar to continue.</p>"," ","",""
"","","","","","html-keyboard-response","168","243474","0.0-5.0-0.15","null","<div style=""font-size:60px;"">+</div>","null","fixation",""
"","","","","","video-keyboard-response","169","245211","0.0-5.0-1.15","1736","[""videos/fast_low_c12_purple.mov""]","f","response","false"
"","","","","","html-keyboard-response","170","246213","0.0-5.0-0.16","null","<div style=""font-size:60px;"">+</div>","null","fixation",""
"","","","","","video-keyboard-response","171","247755","0.0-5.0-1.16","1541","[""videos/slow_high_c2_purple.mov""]","f","response","false"
"","","","","","html-keyboard-response","172","248758","0.0-5.0-0.17","null","<div style=""font-size:60px;"">+</div>","null","fixation",""
"","","","","","video-keyboard-response","173","250361","0.0-5.0-1.17","1602","[""videos/slow_high_c1_pink_mirror.mov""]","f","response","false"
"","","","","","html-keyboard-response","174","250862","0.0-5.0-0.18","null","<div style=""font-size:60px;"">+</div>","null","fixation",""
"","","","","","video-keyboard-response","175","252546","0.0-5.0-1.18","1682","[""videos/med_high_c5_purple_mirror.mov""]","f","response","false"
"","","","","","html-keyboard-response","176","253297","0.0-5.0-0.19","null","<div style=""font-size:60px;"">+</div>","null","fixation",""
"","","","","","video-keyboard-response","177","254739","0.0-5.0-1.19","1440","[""videos/med_med_c4_pink.mov""]","f","response","false"
"","","","","","html-keyboard-response","178","255241","0.0-5.0-0.20","null","<div style=""font-size:60px;"">+</div>","null","fixation",""
"","","","","","video-keyboard-response","179","256681","0.0-5.0-1.20","1439","[""videos/slow_low_c2_purple.mov""]","f","response","false"
"","","","","","html-keyboard-response","180","257434","0.0-5.0-0.21","null","<div style=""font-size:60px;"">+</div>","null","fixation",""
"","","","","","video-keyboard-response","181","259314","0.0-5.0-1.21","1879","[""videos/fast_low_c16_purple_mirror.mov""]","f","response","false"
"","","","","","html-keyboard-response","182","259815","0.0-5.0-0.22","null","<div style=""font-size:60px;"">+</div>","null","fixation",""
"","","","","","video-keyboard-response","183","261455","0.0-5.0-1.22","1639","[""videos/med_med_c9_purple_mirror.mov""]","j","response","false"
"","","","","","html-keyboard-response","184","262457","0.0-5.0-0.23","null","<div style=""font-size:60px;"">+</div>","null","fixation",""
"","","","","","video-keyboard-response","185","264132","0.0-5.0-1.23","1674","[""videos/med_high_c13_pink.mov""]","j","response","false"
"","","","","","html-keyboard-response","186","264634","0.0-5.0-0.24","null","<div style=""font-size:60px;"">+</div>","null","fixation",""
"","","","","","video-keyboard-response","187","266084","0.0-5.0-1.24","1448","[""videos/fast_low_c14_purple_mirror.mov""]","f","response","false"
"","","","","","html-keyboard-response","188","266585","0.0-5.0-0.25","null","<div style=""font-size:60px;"">+</div>","null","fixation",""
"","","","","","video-keyboard-response","189","267883","0.0-5.0-1.25","1297","[""videos/med_med_c7_teal.mov""]","f","response","false"
"","","","","","html-keyboard-response","190","268634","0.0-5.0-0.26","null","<div style=""font-size:60px;"">+</div>","null","fixation",""
"","","","","","video-keyboard-response","191","269953","0.0-5.0-1.26","1317","[""videos/slow_med_c3_teal.mov""]","f","response","false"
"","","","","","html-keyboard-response","192","270955","0.0-5.0-0.27","null","<div style=""font-size:60px;"">+</div>","null","fixation",""
"","","","","","video-keyboard-response","193","272483","0.0-5.0-1.27","1527","[""videos/fast_low_c14_teal.mov""]","f","response","false"
"","","","","","html-keyboard-response","194","272985","0.0-5.0-0.28","null","<div style=""font-size:60px;"">+</div>","null","fixation",""
"","","","","","video-keyboard-response","195","274481","0.0-5.0-1.28","1494","[""videos/med_med_c11_purple.mov""]","j","response","false"
"","","","","","html-keyboard-response","196","275483","0.0-5.0-0.29","null","<div style=""font-size:60px;"">+</div>","null","fixation",""
"","","","","","video-keyboard-response","197","277014","0.0-5.0-1.29","1529","[""videos/med_low_c16_teal.mov""]","j","response","false"
"","","","","","html-keyboard-response","198","278015","0.0-5.0-0.30","null","<div style=""font-size:60px;"">+</div>","null","fixation",""
"","","","","","video-keyboard-response","199","279594","0.0-5.0-1.30","1577","[""videos/fast_med_c15_pink.mov""]","f","response","false"
"","","","","","html-keyboard-response","200","280346","0.0-5.0-0.31","null","<div style=""font-size:60px;"">+</div>","null","fixation",""
"","","","","","video-keyboard-response","201","282018","0.0-5.0-1.31","1671","[""videos/med_med_c6_pink_mirror.mov""]","f","response","false"
"","","","","","html-keyboard-response","202","283020","0.0-5.0-0.32","null","<div style=""font-size:60px;"">+</div>","null","fixation",""
"","","","","","video-keyboard-response","203","284508","0.0-5.0-1.32","1486","[""videos/fast_low_c15_purple.mov""]","f","response","false"
"","","","","","html-keyboard-response","204","285509","0.0-5.0-0.33","null","<div style=""font-size:60px;"">+</div>","null","fixation",""
"","","","","","video-keyboard-response","205","286991","0.0-5.0-1.33","1481","[""videos/med_high_c1_purple.mov""]","f","response","false"
"","","","","","html-keyboard-response","206","287493","0.0-5.0-0.34","null","<div style=""font-size:60px;"">+</div>","null","fixation",""
"","","","","","video-keyboard-response","207","288825","0.0-5.0-1.34","1331","[""videos/fast_med_c16_teal.mov""]","f","response","false"
"","","","","","html-keyboard-response","208","290207","0.0-5.0-2.34-0.34","1382","<p>You can take a quick break now if you need it.</p>
      <p>Press the spacebar to continue.</p>"," ","",""
"","","","","","html-keyboard-response","209","291210","0.0-5.0-0.35","null","<div style=""font-size:60px;"">+</div>","null","fixation",""
"","","","","","video-keyboard-response","210","292646","0.0-5.0-1.35","1434","[""videos/slow_high_c4_purple.mov""]","j","response","false"
"","","","","","html-keyboard-response","211","293397","0.0-5.0-0.36","null","<div style=""font-size:60px;"">+</div>","null","fixation",""
"","","","","","video-keyboard-response","212","294909","0.0-5.0-1.36","1510","[""videos/slow_med_c4_purple.mov""]","j","response","false"
"","","","","","html-keyboard-response","213","295410","0.0-5.0-0.37","null","<div style=""font-size:60px;"">+</div>","null","fixation",""
"","","","","","video-keyboard-response","214","297053","0.0-5.0-1.37","1643","[""videos/med_low_c10_pink_mirror.mov""]","j","response","false"
"","","","","","html-keyboard-response","215","297805","0.0-5.0-0.38","null","<div style=""font-size:60px;"">+</div>","null","fixation",""
"","","","","","video-keyboard-response","216","299328","0.0-5.0-1.38","1521","[""videos/slow_high_c3_purple_mirror.mov""]","j","response","false"
"","","","","","html-keyboard-response","217","300081","0.0-5.0-0.39","null","<div style=""font-size:60px;"">+</div>","null","fixation",""
"","","","","","video-keyboard-response","218","301742","0.0-5.0-1.39","1660","[""videos/med_low_c2_purple.mov""]","j","response","false"
"","","","","","html-keyboard-response","219","302744","0.0-5.0-0.40","null","<div style=""font-size:60px;"">+</div>","null","fixation",""
"","","","","","video-keyboard-response","220","304347","0.0-5.0-1.40","1602","[""videos/fast_med_c6_tan.mov""]","f","response","false"
"","","","","","html-keyboard-response","221","305100","0.0-5.0-0.41","null","<div style=""font-size:60px;"">+</div>","null","fixation",""
"","","","","","video-keyboard-response","222","306725","0.0-5.0-1.41","1624","[""videos/med_low_c9_pink.mov""]","f","response","false"
"","","","","","html-keyboard-response","223","307728","0.0-5.0-0.42","null","<div style=""font-size:60px;"">+</div>","null","fixation",""
"","","","","","video-keyboard-response","224","309260","0.0-5.0-1.42","1531","[""videos/fast_med_c13_tan_mirror.mov""]","f","response","false"
"","","","","","html-keyboard-response","225","310012","0.0-5.0-0.43","null","<div style=""font-size:60px;"">+</div>","null","fixation",""
"","","","","","video-keyboard-response","226","311491","0.0-5.0-1.43","1477","[""videos/slow_med_c10_teal_mirror.mov""]","j","response","false"
"","","","","","html-keyboard-response","227","311993","0.0-5.0-0.44","null","<div style=""font-size:60px;"">+</div>","null","fixation",""
"","","","","","video-keyboard-response","228","313439","0.0-5.0-1.44","1445","[""videos/slow_med_c2_teal_mirror.mov""]","f","response","false"
"","","","","","html-keyboard-response","229","313940","0.0-5.0-0.45","null","<div style=""font-size:60px;"">+</div>","null","fixation",""
"","","","","","video-keyboard-response","230","315625","0.0-5.0-1.45","1684","[""videos/med_med_c14_tan_mirror.mov""]","j","response","false"
"","","","","","html-keyboard-response","231","316377","0.0-5.0-0.46","null","<div style=""font-size:60px;"">+</div>","null","fixation",""
"","","","","","video-keyboard-response","232","317878","0.0-5.0-1.46","1500","[""videos/med_high_c10_tan_mirror.mov""]","j","response","false"
"","","","","","html-keyboard-response","233","318631","0.0-5.0-0.47","null","<div style=""font-size:60px;"">+</div>","null","fixation",""
"","","","","","video-keyboard-response","234","320323","0.0-5.0-1.47","1691","[""videos/slow_high_c1_purple.mov""]","f","response","false"
"","","","","","html-keyboard-response","235","321326","0.0-5.0-0.48","null","<div style=""font-size:60px;"">+</div>","null","fixation",""
"","","","","","video-keyboard-response","236","322810","0.0-5.0-1.48","1483","[""videos/fast_low_c16_tan.mov""]","f","response","false"
"","","","","","html-keyboard-response","237","323312","0.0-5.0-0.49","null","<div style=""font-size:60px;"">+</div>","null","fixation",""
"","","","","","video-keyboard-response","238","324818","0.0-5.0-1.49","1504","[""videos/fast_high_c4_teal_mirror.mov""]","f","response","false"
"","","","","","html-keyboard-response","239","325319","0.0-5.0-0.50","null","<div style=""font-size:60px;"">+</div>","null","fixation",""
"","","","","","video-keyboard-response","240","326916","0.0-5.0-1.50","1597","[""videos/fast_high_c13_pink_mirror.mov""]","f","response","false"
"","","","","","html-keyboard-response","241","327919","0.0-5.0-0.51","null","<div style=""font-size:60px;"">+</div>","null","fixation",""
"","","","","","video-keyboard-response","242","329301","0.0-5.0-1.51","1381","[""videos/fast_med_c6_purple_mirror.mov""]","f","response","false"
"","","","","","html-keyboard-response","243","330054","0.0-5.0-0.52","null","<div style=""font-size:60px;"">+</div>","null","fixation",""
"","","","","","video-keyboard-response","244","331574","0.0-5.0-1.52","1519","[""videos/med_med_c4_purple_mirror.mov""]","f","response","false"
"","","","","","html-keyboard-response","245","332576","0.0-5.0-0.53","null","<div style=""font-size:60px;"">+</div>","null","fixation",""
"","","","","","video-keyboard-response","246","333985","0.0-5.0-1.53","1408","[""videos/med_high_c6_tan.mov""]","f","response","false"
"","","","","","html-keyboard-response","247","334487","0.0-5.0-0.54","null","<div style=""font-size:60px;"">+</div>","null","fixation",""
"","","","","","video-keyboard-response","248","335651","0.0-5.0-1.54","1163","[""videos/slow_med_c1_purple.mov""]","f","response","false"
"","","","","","html-keyboard-response","249","336702","0.0-5.0-2.54-0.54","1050","<p>You can take a quick break now if you need it.</p>
      <p>Press the spacebar to continue.</p>"," ","",""
"","","","","","html-keyboard-response","250","337704","0.0-5.0-0.55","null","<div style=""font-size:60px;"">+</div>","null","fixation",""
"","","","","","video-keyboard-response","251","339210","0.0-5.0-1.55","1505","[""videos/fast_med_c17_tan_mirror.mov""]","f","response","false"
"","","","","","html-keyboard-response","252","340213","0.0-5.0-0.56","null","<div style=""font-size:60px;"">+</div>","null","fixation",""
"","","","","","video-keyboard-response","253","342150","0.0-5.0-1.56","1936","[""videos/med_low_c5_purple_mirror.mov""]","f","response","false"
"","","","","","html-keyboard-response","254","342651","0.0-5.0-0.57","null","<div style=""font-size:60px;"">+</div>","null","fixation",""
"","","","","","video-keyboard-response","255","344172","0.0-5.0-1.57","1520","[""videos/slow_med_c10_purple.mov""]","j","response","false"
"","","","","","html-keyboard-response","256","344674","0.0-5.0-0.58","null","<div style=""font-size:60px;"">+</div>","null","fixation",""
"","","","","","video-keyboard-response","257","346616","0.0-5.0-1.58","1941","[""videos/med_low_c5_pink.mov""]","j","response","false"
"","","","","","html-keyboard-response","258","347368","0.0-5.0-0.59","null","<div style=""font-size:60px;"">+</div>","null","fixation",""
"","","","","","video-keyboard-response","259","348947","0.0-5.0-1.59","1578","[""videos/slow_low_c2_teal_mirror.mov""]","f","response","false"
"","","","","","html-keyboard-response","260","349700","0.0-5.0-0.60","null","<div style=""font-size:60px;"">+</div>","null","fixation",""
"","","","","","video-keyboard-response","261","351372","0.0-5.0-1.60","1671","[""videos/med_high_c5_teal.mov""]","f","response","false"
"","","","","","html-keyboard-response","262","351874","0.0-5.0-0.61","null","<div style=""font-size:60px;"">+</div>","null","fixation",""
"","","","","","video-keyboard-response","263","353332","0.0-5.0-1.61","1456","[""videos/slow_med_c7_tan_mirror.mov""]","j","response","false"
"","","","","","html-keyboard-response","264","353833","0.0-5.0-0.62","null","<div style=""font-size:60px;"">+</div>","null","fixation",""
"","","","","","video-keyboard-response","265","355383","0.0-5.0-1.62","1548","[""videos/slow_high_c2_teal_mirror.mov""]","j","response","false"
"","","","","","html-keyboard-response","266","356385","0.0-5.0-0.63","null","<div style=""font-size:60px;"">+</div>","null","fixation",""
"","","","","","video-keyboard-response","267","357877","0.0-5.0-1.63","1491","[""videos/fast_high_c8_teal.mov""]","f","response","false"
"","","","","","html-keyboard-response","268","358629","0.0-5.0-0.64","null","<div style=""font-size:60px;"">+</div>","null","fixation",""
"","","","","","video-keyboard-response","269","360263","0.0-5.0-1.64","1633","[""videos/med_low_c7_tan_mirror.mov""]","f","response","false"
"","","","","","html-keyboard-response","270","360765","0.0-5.0-0.65","null","<div style=""font-size:60px;"">+</div>","null","fixation",""
"","","","","","video-keyboard-response","271","362935","0.0-5.0-1.65","2169","[""videos/fast_high_c12_purple_mirror.mov""]","f","response","false"
"","","","","","html-keyboard-response","272","363937","0.0-5.0-0.66","null","<div style=""font-size:60px;"">+</div>","null","fixation",""
"","","","","","video-keyboard-response","273","365474","0.0-5.0-1.66","1537","[""videos/fast_med_c15_tan.mov""]","f","response","false"
"","","","","","html-keyboard-response","274","366477","0.0-5.0-0.67","null","<div style=""font-size:60px;"">+</div>","null","fixation",""
"","","","","","video-keyboard-response","275","368166","0.0-5.0-1.67","1688","[""videos/fast_med_c15_teal_mirror.mov""]","f","response","false"
"","","","","","html-keyboard-response","276","368919","0.0-5.0-0.68","null","<div style=""font-size:60px;"">+</div>","null","fixation",""
"","","","","","video-keyboard-response","277","370734","0.0-5.0-1.68","1814","[""videos/fast_med_c16_purple_mirror.mov""]","f","response","false"
"","","","","","html-keyboard-response","278","371235","0.0-5.0-0.69","null","<div style=""font-size:60px;"">+</div>","null","fixation",""
"","","","","","video-keyboard-response","279","372710","0.0-5.0-1.69","1473","[""videos/fast_high_c8_tan_mirror.mov""]","f","response","false"
"","","","","","html-keyboard-response","280","373713","0.0-5.0-0.70","null","<div style=""font-size:60px;"">+</div>","null","fixation",""
"","","","","","video-keyboard-response","281","375726","0.0-5.0-1.70","2012","[""videos/slow_low_c12_purple_mirror.mov""]","j","response","false"
"","","","","","html-keyboard-response","282","376227","0.0-5.0-0.71","null","<div style=""font-size:60px;"">+</div>","null","fixation",""
"","","","","","video-keyboard-response","283","377851","0.0-5.0-1.71","1622","[""videos/slow_high_c4_teal_mirror.mov""]","j","response","false"
"","","","","","html-keyboard-response","284","378603","0.0-5.0-0.72","null","<div style=""font-size:60px;"">+</div>","null","fixation",""
"","","","","","video-keyboard-response","285","380329","0.0-5.0-1.72","1725","[""videos/med_med_c8_teal.mov""]","j","response","false"
"","","","","","html-keyboard-response","286","381081","0.0-5.0-0.73","null","<div style=""font-size:60px;"">+</div>","null","fixation",""
"","","","","","video-keyboard-response","287","382521","0.0-5.0-1.73","1438","[""videos/slow_med_c1_teal_mirror.mov""]","j","response","false"
"","","","","","html-keyboard-response","288","383022","0.0-5.0-0.74","null","<div style=""font-size:60px;"">+</div>","null","fixation",""
"","","","","","video-keyboard-response","289","384788","0.0-5.0-1.74","1765","[""videos/med_low_c8_teal_mirror.mov""]","f","response","false"
"","","","","","html-keyboard-response","290","385843","0.0-5.0-2.74-0.74","1055","<p>You can take a quick break now if you need it.</p>
      <p>Press the spacebar to continue.</p>"," ","",""
"","","","","","html-keyboard-response","291","386345","0.0-5.0-0.75","null","<div style=""font-size:60px;"">+</div>","null","fixation",""
"","","","","","video-keyboard-response","292","387987","0.0-5.0-1.75","1641","[""videos/slow_low_c3_pink_mirror.mov""]","j","response","false"
"","","","","","html-keyboard-response","293","388989","0.0-5.0-0.76","null","<div style=""font-size:60px;"">+</div>","null","fixation",""
"","","","","","video-keyboard-response","294","390591","0.0-5.0-1.76","1600","[""videos/fast_high_c15_tan.mov""]","f","response","false"
"","","","","","html-keyboard-response","295","391593","0.0-5.0-0.77","null","<div style=""font-size:60px;"">+</div>","null","fixation",""
"","","","","","video-keyboard-response","296","393437","0.0-5.0-1.77","1842","[""videos/slow_med_c2_pink_mirror.mov""]","j","response","false"
"","","","","","html-keyboard-response","297","394439","0.0-5.0-0.78","null","<div style=""font-size:60px;"">+</div>","null","fixation",""
"","","","","","video-keyboard-response","298","396186","0.0-5.0-1.78","1746","[""videos/med_med_c14_purple.mov""]","j","response","false"
"","","","","","html-keyboard-response","299","397189","0.0-5.0-0.79","null","<div style=""font-size:60px;"">+</div>","null","fixation",""
"","","","","","video-keyboard-response","300","398686","0.0-5.0-1.79","1495","[""videos/slow_high_c3_tan.mov""]","f","response","false"
"","","","","","html-keyboard-response","301","399437","0.0-5.0-0.80","null","<div style=""font-size:60px;"">+</div>","null","fixation",""
"","","","","","video-keyboard-response","302","401026","0.0-5.0-1.80","1588","[""videos/med_low_c9_purple_mirror.mov""]","f","response","false"
"","","","","","html-keyboard-response","303","401528","0.0-5.0-0.81","null","<div style=""font-size:60px;"">+</div>","null","fixation",""
"","","","","","video-keyboard-response","304","403276","0.0-5.0-1.81","1747","[""videos/fast_low_c16_teal.mov""]","f","response","false"
"","","","","","html-keyboard-response","305","404278","0.0-5.0-0.82","null","<div style=""font-size:60px;"">+</div>","null","fixation",""
"","","","","","video-keyboard-response","306","406098","0.0-5.0-1.82","1818","[""videos/slow_high_c1_teal_mirror.mov""]","f","response","false"
"","","","","","html-keyboard-response","307","407100","0.0-5.0-0.83","null","<div style=""font-size:60px;"">+</div>","null","fixation",""
"","","","","","video-keyboard-response","308","408678","0.0-5.0-1.83","1577","[""videos/slow_low_c4_purple.mov""]","f","response","false"
"","","","","","html-keyboard-response","309","409430","0.0-5.0-0.84","null","<div style=""font-size:60px;"">+</div>","null","fixation",""
"","","","","","video-keyboard-response","310","410953","0.0-5.0-1.84","1521","[""videos/fast_low_c12_tan_mirror.mov""]","f","response","false"
"","","","","","html-keyboard-response","311","411955","0.0-5.0-0.85","null","<div style=""font-size:60px;"">+</div>","null","fixation",""
"","","","","","video-keyboard-response","312","413405","0.0-5.0-1.85","1449","[""videos/med_low_c16_purple_mirror.mov""]","j","response","false"
"","","","","","html-keyboard-response","313","414407","0.0-5.0-0.86","null","<div style=""font-size:60px;"">+</div>","null","fixation",""
"","","","","","video-keyboard-response","314","415882","0.0-5.0-1.86","1473","[""videos/fast_med_c13_teal.mov""]","f","response","false"
"","","","","","html-keyboard-response","315","416384","0.0-5.0-0.87","null","<div style=""font-size:60px;"">+</div>","null","fixation",""
"","","","","","video-keyboard-response","316","418148","0.0-5.0-1.87","1763","[""videos/med_low_c2_pink_mirror.mov""]","f","response","false"
"","","","","","html-keyboard-response","317","418649","0.0-5.0-0.88","null","<div style=""font-size:60px;"">+</div>","null","fixation",""
"","","","","","video-keyboard-response","318","420350","0.0-5.0-1.88","1699","[""videos/med_med_c11_teal_mirror.mov""]","j","response","false"
"","","","","","html-keyboard-response","319","420851","0.0-5.0-0.89","null","<div style=""font-size:60px;"">+</div>","null","fixation",""
"","","","","","video-keyboard-response","320","422567","0.0-5.0-1.89","1715","[""videos/med_low_c7_teal.mov""]","j","response","false"
"","","","","","html-keyboard-response","321","423569","0.0-5.0-0.90","null","<div style=""font-size:60px;"">+</div>","null","fixation",""
"","","","","","video-keyboard-response","322","425278","0.0-5.0-1.90","1708","[""videos/slow_low_c2_tan.mov""]","f","response","false"
"","","","","","html-keyboard-response","323","426030","0.0-5.0-0.91","null","<div style=""font-size:60px;"">+</div>","null","fixation",""
"","","","","","video-keyboard-response","324","427779","0.0-5.0-1.91","1747","[""videos/fast_high_c17_purple_mirror.mov""]","f","response","false"
"","","","","","html-keyboard-response","325","428780","0.0-5.0-0.92","null","<div style=""font-size:60px;"">+</div>","null","fixation",""
"","","","","","video-keyboard-response","326","430335","0.0-5.0-1.92","1554","[""videos/slow_med_c5_pink.mov""]","f","response","false"
"","","","","","html-keyboard-response","327","430837","0.0-5.0-0.93","null","<div style=""font-size:60px;"">+</div>","null","fixation",""
"","","","","","video-keyboard-response","328","432841","0.0-5.0-1.93","2003","[""videos/fast_low_c5_teal.mov""]","f","response","false"
"","","","","","html-keyboard-response","329","433592","0.0-5.0-0.94","null","<div style=""font-size:60px;"">+</div>","null","fixation",""
"","","","","","video-keyboard-response","330","435360","0.0-5.0-1.94","1766","[""videos/med_low_c8_tan.mov""]","f","response","false"
"","","","","","html-keyboard-response","331","436273","0.0-5.0-2.94-0.94","912","<p>You can take a quick break now if you need it.</p>
      <p>Press the spacebar to continue.</p>"," ","",""
"","","","","","html-keyboard-response","332","437275","0.0-5.0-0.95","null","<div style=""font-size:60px;"">+</div>","null","fixation",""
"","","","","","video-keyboard-response","333","438955","0.0-5.0-1.95","1678","[""videos/fast_med_c11_tan_mirror.mov""]","f","response","false"
"","","","","","html-keyboard-response","334","439956","0.0-5.0-0.96","null","<div style=""font-size:60px;"">+</div>","null","fixation",""
"","","","","","video-keyboard-response","335","441438","0.0-5.0-1.96","1481","[""videos/fast_high_c17_pink.mov""]","j","response","false"
"","","","","","html-keyboard-response","336","441940","0.0-5.0-0.97","null","<div style=""font-size:60px;"">+</div>","null","fixation",""
"","","","","","video-keyboard-response","337","443329","0.0-5.0-1.97","1388","[""videos/fast_high_c13_tan.mov""]","j","response","false"
"","","","","","html-keyboard-response","338","443830","0.0-5.0-0.98","null","<div style=""font-size:60px;"">+</div>","null","fixation",""
"","","","","","video-keyboard-response","339","445444","0.0-5.0-1.98","1613","[""videos/fast_high_c10_teal.mov""]","f","response","false"
"","","","","","html-keyboard-response","340","445946","0.0-5.0-0.99","null","<div style=""font-size:60px;"">+</div>","null","fixation",""
"","","","","","video-keyboard-response","341","447548","0.0-5.0-1.99","1600","[""videos/slow_high_c13_teal_mirror.mov""]","j","response","false"
"","","","","","html-keyboard-response","342","448050","0.0-5.0-0.100","null","<div style=""font-size:60px;"">+</div>","null","fixation",""
"","","","","","video-keyboard-response","343","449434","0.0-5.0-1.100","1382","[""videos/fast_low_c5_purple_mirror.mov""]","f","response","false"
"","","","","","html-keyboard-response","344","450186","0.0-5.0-0.101","null","<div style=""font-size:60px;"">+</div>","null","fixation",""
"","","","","","video-keyboard-response","345","451654","0.0-5.0-1.101","1467","[""videos/slow_high_c13_pink.mov""]","j","response","false"
"","","","","","html-keyboard-response","346","452657","0.0-5.0-0.102","null","<div style=""font-size:60px;"">+</div>","null","fixation",""
"","","","","","video-keyboard-response","347","454270","0.0-5.0-1.102","1612","[""videos/fast_low_c17_pink_mirror.mov""]","f","response","false"
"","","","","","html-keyboard-response","348","455272","0.0-5.0-0.103","null","<div style=""font-size:60px;"">+</div>","null","fixation",""
"","","","","","video-keyboard-response","349","457353","0.0-5.0-1.103","2080","[""videos/slow_med_c3_pink_mirror.mov""]","j","response","false"
"","","","","","html-keyboard-response","350","458105","0.0-5.0-0.104","null","<div style=""font-size:60px;"">+</div>","null","fixation",""
"","","","","","video-keyboard-response","351","459556","0.0-5.0-1.104","1450","[""videos/fast_low_c15_pink_mirror.mov""]","f","response","false"
"","","","","","html-keyboard-response","352","460559","0.0-5.0-0.105","null","<div style=""font-size:60px;"">+</div>","null","fixation",""
"","","","","","video-keyboard-response","353","462030","0.0-5.0-1.105","1470","[""videos/slow_low_c3_teal_mirror.mov""]","j","response","false"
"","","","","","html-keyboard-response","354","463032","0.0-5.0-0.106","null","<div style=""font-size:60px;"">+</div>","null","fixation",""
"","","","","","video-keyboard-response","355","464715","0.0-5.0-1.106","1682","[""videos/med_low_c12_pink.mov""]","f","response","false"
"","","","","","html-keyboard-response","356","465718","0.0-5.0-0.107","null","<div style=""font-size:60px;"">+</div>","null","fixation",""
"","","","","","video-keyboard-response","357","467213","0.0-5.0-1.107","1494","[""videos/med_low_c10_purple.mov""]","f","response","false"
"","","","","","html-keyboard-response","358","467965","0.0-5.0-0.108","null","<div style=""font-size:60px;"">+</div>","null","fixation",""
"","","","","","video-keyboard-response","359","469652","0.0-5.0-1.108","1686","[""videos/fast_high_c15_purple_mirror.mov""]","f","response","false"
"","","","","","html-keyboard-response","360","470654","0.0-5.0-0.109","null","<div style=""font-size:60px;"">+</div>","null","fixation",""
"","","","","","video-keyboard-response","361","472372","0.0-5.0-1.109","1716","[""videos/slow_high_c1_tan.mov""]","j","response","false"
"","","","","","html-keyboard-response","362","473124","0.0-5.0-0.110","null","<div style=""font-size:60px;"">+</div>","null","fixation",""
"","","","","","video-keyboard-response","363","475008","0.0-5.0-1.110","1883","[""videos/slow_high_c2_tan.mov""]","f","response","false"
"","","","","","html-keyboard-response","364","475510","0.0-5.0-0.111","null","<div style=""font-size:60px;"">+</div>","null","fixation",""
"","","","","","video-keyboard-response","365","477024","0.0-5.0-1.111","1513","[""videos/med_high_c8_teal.mov""]","f","response","false"
"","","","","","html-keyboard-response","366","477525","0.0-5.0-0.112","null","<div style=""font-size:60px;"">+</div>","null","fixation",""
"","","","","","video-keyboard-response","367","478979","0.0-5.0-1.112","1452","[""videos/fast_high_c10_tan_mirror.mov""]","f","response","false"
"","","","","","html-keyboard-response","368","479731","0.0-5.0-0.113","null","<div style=""font-size:60px;"">+</div>","null","fixation",""
"","","","","","video-keyboard-response","369","481518","0.0-5.0-1.113","1786","[""videos/fast_low_c17_tan.mov""]","j","response","false"
"","","","","","html-keyboard-response","370","482519","0.0-5.0-0.114","null","<div style=""font-size:60px;"">+</div>","null","fixation",""
"","","","","","video-keyboard-response","371","484060","0.0-5.0-1.114","1539","[""videos/fast_med_c17_purple.mov""]","f","response","false"
"","","","","","html-keyboard-response","372","484723","0.0-5.0-2.114-0.114","663","<p>You can take a quick break now if you need it.</p>
      <p>Press the spacebar to continue.</p>"," ","",""
"","","","","","html-keyboard-response","373","485725","0.0-5.0-0.115","null","<div style=""font-size:60px;"">+</div>","null","fixation",""
"","","","","","video-keyboard-response","374","487455","0.0-5.0-1.115","1728","[""videos/slow_low_c3_purple.mov""]","f","response","false"
"","","","","","html-keyboard-response","375","488457","0.0-5.0-0.116","null","<div style=""font-size:60px;"">+</div>","null","fixation",""
"","","","","","video-keyboard-response","376","490005","0.0-5.0-1.116","1546","[""videos/slow_low_c5_purple.mov""]","f","response","false"
"","","","","","html-keyboard-response","377","490756","0.0-5.0-0.117","null","<div style=""font-size:60px;"">+</div>","null","fixation",""
"","","","","","video-keyboard-response","378","492354","0.0-5.0-1.117","1597","[""videos/med_med_c7_tan_mirror.mov""]","f","response","false"
"","","","","","html-keyboard-response","379","493106","0.0-5.0-0.118","null","<div style=""font-size:60px;"">+</div>","null","fixation",""
"","","","","","video-keyboard-response","380","494667","0.0-5.0-1.118","1560","[""videos/med_high_c3_tan.mov""]","f","response","false"
"","","","","","html-keyboard-response","381","495419","0.0-5.0-0.119","null","<div style=""font-size:60px;"">+</div>","null","fixation",""
"","","","","","video-keyboard-response","382","496965","0.0-5.0-1.119","1544","[""videos/med_low_c12_tan_mirror.mov""]","j","response","false"
"","","","","","html-keyboard-response","383","497466","0.0-5.0-0.120","null","<div style=""font-size:60px;"">+</div>","null","fixation",""
"","","","","","video-keyboard-response","384","498885","0.0-5.0-1.120","1418","[""videos/fast_med_c14_tan_mirror.mov""]","f","response","false"
"","","","","","html-keyboard-response","385","499886","0.0-5.0-0.121","null","<div style=""font-size:60px;"">+</div>","null","fixation",""
"","","","","","video-keyboard-response","386","501506","0.0-5.0-1.121","1619","[""videos/slow_med_c4_tan_mirror.mov""]","f","response","false"
"","","","","","html-keyboard-response","387","502007","0.0-5.0-0.122","null","<div style=""font-size:60px;"">+</div>","null","fixation",""
"","","","","","video-keyboard-response","388","503485","0.0-5.0-1.122","1477","[""videos/fast_low_c16_pink_mirror.mov""]","f","response","false"
"","","","","","html-keyboard-response","389","504486","0.0-5.0-0.123","null","<div style=""font-size:60px;"">+</div>","null","fixation",""
"","","","","","video-keyboard-response","390","506252","0.0-5.0-1.123","1765","[""videos/med_med_c9_teal.mov""]","f","response","false"
"","","","","","html-keyboard-response","391","507005","0.0-5.0-0.124","null","<div style=""font-size:60px;"">+</div>","null","fixation",""
"","","","","","video-keyboard-response","392","510918","0.0-5.0-1.124","3913","[""videos/slow_high_c6_tan.mov""]","f","response","false"
"","","","","","html-keyboard-response","393","511671","0.0-5.0-0.125","null","<div style=""font-size:60px;"">+</div>","null","fixation",""
"","","","","","video-keyboard-response","394","513624","0.0-5.0-1.125","1952","[""videos/med_high_c7_pink.mov""]","j","response","false"
"","","","","","html-keyboard-response","395","514375","0.0-5.0-0.126","null","<div style=""font-size:60px;"">+</div>","null","fixation",""
"","","","","","video-keyboard-response","396","515971","0.0-5.0-1.126","1595","[""videos/fast_high_c11_tan.mov""]","f","response","false"
"","","","","","html-keyboard-response","397","516472","0.0-5.0-0.127","null","<div style=""font-size:60px;"">+</div>","null","fixation",""
"","","","","","video-keyboard-response","398","518595","0.0-5.0-1.127","2121","[""videos/med_high_c7_teal_mirror.mov""]","f","response","false"
"","","","","","html-keyboard-response","399","519096","0.0-5.0-0.128","null","<div style=""font-size:60px;"">+</div>","null","fixation",""
"","","","","","video-keyboard-response","400","524131","0.0-5.0-1.128","5033","[""videos/slow_low_c7_pink_mirror.mov""]","j","response","false"
"","","","","","html-keyboard-response","401","524883","0.0-5.0-0.129","null","<div style=""font-size:60px;"">+</div>","null","fixation",""
"","","","","","video-keyboard-response","402","527102","0.0-5.0-1.129","2217","[""videos/med_med_c6_tan.mov""]","f","response","false"
"","","","","","html-keyboard-response","403","527603","0.0-5.0-0.130","null","<div style=""font-size:60px;"">+</div>","null","fixation",""
"","","","","","video-keyboard-response","404","529578","0.0-5.0-1.130","1973","[""videos/slow_low_c5_teal_mirror.mov""]","f","response","false"
"","","","","","html-keyboard-response","405","530580","0.0-5.0-0.131","null","<div style=""font-size:60px;"">+</div>","null","fixation",""
"","","","","","video-keyboard-response","406","532912","0.0-5.0-1.131","2331","[""videos/fast_med_c11_pink.mov""]","f","response","false"
"","","","","","html-keyboard-response","407","533662","0.0-5.0-0.132","null","<div style=""font-size:60px;"">+</div>","null","fixation",""
"","","","","","video-keyboard-response","408","535951","0.0-5.0-1.132","2288","[""videos/fast_med_c14_pink.mov""]","f","response","false"
"","","","","","html-keyboard-response","409","536452","0.0-5.0-0.133","null","<div style=""font-size:60px;"">+</div>","null","fixation",""
"","","","","","video-keyboard-response","410","538472","0.0-5.0-1.133","2018","[""videos/med_high_c8_pink_mirror.mov""]","j","response","false"
"","","","","","html-keyboard-response","411","539473","0.0-5.0-0.134","null","<div style=""font-size:60px;"">+</div>","null","fixation",""
"","","","","","video-keyboard-response","412","541632","0.0-5.0-1.134","2157","[""videos/slow_low_c12_tan.mov""]","j","response","false"
"","","","","","html-keyboard-response","413","543704","0.0-5.0-2.134-0.134","2072","<p>You can take a quick break now if you need it.</p>
      <p>Press the spacebar to continue.</p>"," ","",""
"","","","","","html-keyboard-response","414","544206","0.0-5.0-0.135","null","<div style=""font-size:60px;"">+</div>","null","fixation",""
"","","","","","video-keyboard-response","415","546244","0.0-5.0-1.135","2037","[""videos/med_med_c8_tan_mirror.mov""]","j","response","false"
"","","","","","html-keyboard-response","416","546997","0.0-5.0-0.136","null","<div style=""font-size:60px;"">+</div>","null","fixation",""
"","","","","","video-keyboard-response","417","548640","0.0-5.0-1.136","1642","[""videos/med_high_c10_purple.mov""]","j","response","false"
"","","","","","html-keyboard-response","418","549642","0.0-5.0-0.137","null","<div style=""font-size:60px;"">+</div>","null","fixation",""
"","","","","","video-keyboard-response","419","551137","0.0-5.0-1.137","1493","[""videos/fast_high_c4_purple.mov""]","f","response","false"
"","","","","","html-keyboard-response","420","551888","0.0-5.0-0.138","null","<div style=""font-size:60px;"">+</div>","null","fixation",""
"","","","","","video-keyboard-response","421","553318","0.0-5.0-1.138","1428","[""videos/slow_med_c3_tan.mov""]","f","response","false"
"","","","","","html-keyboard-response","422","553819","0.0-5.0-0.139","null","<div style=""font-size:60px;"">+</div>","null","fixation",""
"","","","","","video-keyboard-response","423","555317","0.0-5.0-1.139","1496","[""videos/med_med_c1_pink_mirror.mov""]","f","response","false"
"","","","","","html-keyboard-response","424","555819","0.0-5.0-0.140","null","<div style=""font-size:60px;"">+</div>","null","fixation",""
"","","","","","video-keyboard-response","425","557437","0.0-5.0-1.140","1617","[""videos/slow_med_c5_tan_mirror.mov""]","f","response","false"
"","","","","","html-keyboard-response","426","558439","0.0-5.0-0.141","null","<div style=""font-size:60px;"">+</div>","null","fixation",""
"","","","","","video-keyboard-response","427","559969","0.0-5.0-1.141","1528","[""videos/fast_high_c12_teal.mov""]","f","response","false"
"","","","","","html-keyboard-response","428","560971","0.0-5.0-0.142","null","<div style=""font-size:60px;"">+</div>","null","fixation",""
"","","","","","video-keyboard-response","429","562717","0.0-5.0-1.142","1745","[""videos/slow_med_c7_pink.mov""]","j","response","false"
"","","","","","html-keyboard-response","430","563719","0.0-5.0-0.143","null","<div style=""font-size:60px;"">+</div>","null","fixation",""
"","","","","","video-keyboard-response","431","565085","0.0-5.0-1.143","1365","[""videos/med_high_c6_purple_mirror.mov""]","f","response","false"
"","","","","","html-keyboard-response","432","566670","0.0-6.0","1584","<p>You can take a quick break now if you need it.</p>
      <p>Press the spacebar to continue.</p>"," ","",""
"","","","","","html-keyboard-response","433","567671","0.0-7.0-0.0","null","<div style=""font-size:60px;"">+</div>","null","fixation",""
"","","","","","video-keyboard-response","434","569049","0.0-7.0-1.0","1376","[""videos/slow_low_c2_white_mirror.mov""]","f","response","false"
"","","","","","html-keyboard-response","435","570051","0.0-7.0-0.1","null","<div style=""font-size:60px;"">+</div>","null","fixation",""
"","","","","","video-keyboard-response","436","573431","0.0-7.0-1.1","3378","[""videos/med_med_c14_white.mov""]","j","response","false"
"","","","","","html-keyboard-response","437","574433","0.0-7.0-0.2","null","<div style=""font-size:60px;"">+</div>","null","fixation",""
"","","","","","video-keyboard-response","438","576060","0.0-7.0-1.2","1626","[""videos/fast_high_c13_white.mov""]","j","response","false"
"","","","","","html-keyboard-response","439","576812","0.0-7.0-0.3","null","<div style=""font-size:60px;"">+</div>","null","fixation",""
"","","","","","video-keyboard-response","440","578253","0.0-7.0-1.3","1440","[""videos/slow_med_c3_white.mov""]","f","response","false"
"","","","","","html-keyboard-response","441","579006","0.0-7.0-0.4","null","<div style=""font-size:60px;"">+</div>","null","fixation",""
"","","","","","video-keyboard-response","442","580621","0.0-7.0-1.4","1614","[""videos/med_med_c9_white_mirror.mov""]","f","response","false"
"","","","","","html-keyboard-response","443","581122","0.0-7.0-0.5","null","<div style=""font-size:60px;"">+</div>","null","fixation",""
"","","","","","video-keyboard-response","444","582513","0.0-7.0-1.5","1389","[""videos/fast_med_c6_white.mov""]","f","response","false"
"","","","","","html-keyboard-response","445","583015","0.0-7.0-0.6","null","<div style=""font-size:60px;"">+</div>","null","fixation",""
"","","","","","video-keyboard-response","446","584462","0.0-7.0-1.6","1446","[""videos/fast_high_c10_white.mov""]","f","response","false"
"","","","","","html-keyboard-response","447","585214","0.0-7.0-0.7","null","<div style=""font-size:60px;"">+</div>","null","fixation",""
"","","","","","video-keyboard-response","448","586689","0.0-7.0-1.7","1474","[""videos/slow_high_c3_white.mov""]","f","response","false"
"","","","","","html-keyboard-response","449","587691","0.0-7.0-0.8","null","<div style=""font-size:60px;"">+</div>","null","fixation",""
"","","","","","video-keyboard-response","450","589262","0.0-7.0-1.8","1570","[""videos/med_low_c9_white_mirror.mov""]","f","response","false"
"","","","","","html-keyboard-response","451","590264","0.0-7.0-0.9","null","<div style=""font-size:60px;"">+</div>","null","fixation",""
"","","","","","video-keyboard-response","452","592026","0.0-7.0-1.9","1761","[""videos/med_high_c13_white_mirror.mov""]","j","response","false"
"","","","","","html-keyboard-response","453","593028","0.0-7.0-0.10","null","<div style=""font-size:60px;"">+</div>","null","fixation",""
"","","","","","video-keyboard-response","454","594577","0.0-7.0-1.10","1548","[""videos/fast_high_c17_white.mov""]","f","response","false"
"","","","","","html-keyboard-response","455","595369","0.0-7.0-2.10-0.10","792","<p>You can take a quick break now if you need it.</p>
      <p>Press the spacebar to continue.</p>"," ","",""
"","","","","","html-keyboard-response","456","595871","0.0-7.0-0.11","null","<div style=""font-size:60px;"">+</div>","null","fixation",""
"","","","","","video-keyboard-response","457","597471","0.0-7.0-1.11","1598","[""videos/fast_high_c12_white_mirror.mov""]","f","response","false"
"","","","","","html-keyboard-response","458","597972","0.0-7.0-0.12","null","<div style=""font-size:60px;"">+</div>","null","fixation",""
"","","","","","video-keyboard-response","459","599553","0.0-7.0-1.12","1579","[""videos/fast_low_c14_white_mirror.mov""]","f","response","false"
"","","","","","html-keyboard-response","460","600306","0.0-7.0-0.13","null","<div style=""font-size:60px;"">+</div>","null","fixation",""
"","","","","","video-keyboard-response","461","602021","0.0-7.0-1.13","1714","[""videos/med_high_c8_white.mov""]","f","response","false"
"","","","","","html-keyboard-response","462","602772","0.0-7.0-0.14","null","<div style=""font-size:60px;"">+</div>","null","fixation",""
"","","","","","video-keyboard-response","463","604322","0.0-7.0-1.14","1548","[""videos/slow_med_c7_white_mirror.mov""]","j","response","false"
"","","","","","html-keyboard-response","464","605325","0.0-7.0-0.15","null","<div style=""font-size:60px;"">+</div>","null","fixation",""
"","","","","","video-keyboard-response","465","608217","0.0-7.0-1.15","2890","[""videos/slow_low_c7_white.mov""]","f","response","false"
"","","","","","html-keyboard-response","466","608719","0.0-7.0-0.16","null","<div style=""font-size:60px;"">+</div>","null","fixation",""
"","","","","","video-keyboard-response","467","610213","0.0-7.0-1.16","1493","[""videos/med_high_c6_white_mirror.mov""]","f","response","false"
"","","","","","html-keyboard-response","468","611215","0.0-7.0-0.17","null","<div style=""font-size:60px;"">+</div>","null","fixation",""
"","","","","","video-keyboard-response","469","612668","0.0-7.0-1.17","1451","[""videos/fast_med_c14_white_mirror.mov""]","f","response","false"
"","","","","","html-keyboard-response","470","613670","0.0-7.0-0.18","null","<div style=""font-size:60px;"">+</div>","null","fixation",""
"","","","","","video-keyboard-response","471","615091","0.0-7.0-1.18","1420","[""videos/med_med_c11_white.mov""]","j","response","false"
"","","","","","html-keyboard-response","472","615592","0.0-7.0-0.19","null","<div style=""font-size:60px;"">+</div>","null","fixation",""
"","","","","","video-keyboard-response","473","617050","0.0-7.0-1.19","1456","[""videos/med_low_c10_white_mirror.mov""]","j","response","false"
"","","","","","html-keyboard-response","474","618052","0.0-7.0-0.20","null","<div style=""font-size:60px;"">+</div>","null","fixation",""
"","","","","","video-keyboard-response","475","619137","0.0-7.0-1.20","1083","[""videos/slow_high_c13_white_mirror.mov""]","j","response","false"
"","","","","","html-keyboard-response","476","619889","0.0-7.0-0.21","null","<div style=""font-size:60px;"">+</div>","null","fixation",""
"","","","","","video-keyboard-response","477","621224","0.0-7.0-1.21","1334","[""videos/slow_med_c10_white.mov""]","j","response","false"
"","","","","","html-keyboard-response","478","622226","0.0-7.0-0.22","null","<div style=""font-size:60px;"">+</div>","null","fixation",""
"","","","","","video-keyboard-response","479","623614","0.0-7.0-1.22","1387","[""videos/slow_low_c3_white.mov""]","f","response","false"
"","","","","","html-keyboard-response","480","624365","0.0-7.0-0.23","null","<div style=""font-size:60px;"">+</div>","null","fixation",""
"","","","","","video-keyboard-response","481","625788","0.0-7.0-1.23","1422","[""videos/fast_med_c17_white_mirror.mov""]","f","response","false"
"","","","","","html-keyboard-response","482","626790","0.0-7.0-0.24","null","<div style=""font-size:60px;"">+</div>","null","fixation",""
"","","","","","video-keyboard-response","483","628017","0.0-7.0-1.24","1226","[""videos/slow_low_c12_white_mirror.mov""]","j","response","false"
"","","","","","html-keyboard-response","484","628519","0.0-7.0-0.25","null","<div style=""font-size:60px;"">+</div>","null","fixation",""
"","","","","","video-keyboard-response","485","630023","0.0-7.0-1.25","1502","[""videos/fast_low_c17_white.mov""]","j","response","false"
"","","","","","html-keyboard-response","486","631025","0.0-7.0-0.26","null","<div style=""font-size:60px;"">+</div>","null","fixation",""
"","","","","","video-keyboard-response","487","632875","0.0-7.0-1.26","1849","[""videos/med_med_c7_white_mirror.mov""]","f","response","false"
"","","","","","html-keyboard-response","488","633626","0.0-7.0-0.27","null","<div style=""font-size:60px;"">+</div>","null","fixation",""
"","","","","","video-keyboard-response","489","635418","0.0-7.0-1.27","1791","[""videos/med_med_c8_white_mirror.mov""]","f","response","false"
"","","","","","html-keyboard-response","490","636420","0.0-7.0-0.28","null","<div style=""font-size:60px;"">+</div>","null","fixation",""
"","","","","","video-keyboard-response","491","638114","0.0-7.0-1.28","1692","[""videos/fast_high_c4_white_mirror.mov""]","f","response","false"
"","","","","","html-keyboard-response","492","638865","0.0-7.0-0.29","null","<div style=""font-size:60px;"">+</div>","null","fixation",""
"","","","","","video-keyboard-response","493","640443","0.0-7.0-1.29","1577","[""videos/med_med_c6_white_mirror.mov""]","f","response","false"
"","","","","","html-keyboard-response","494","641445","0.0-7.0-0.30","null","<div style=""font-size:60px;"">+</div>","null","fixation",""
"","","","","","video-keyboard-response","495","643238","0.0-7.0-1.30","1791","[""videos/fast_med_c13_white_mirror.mov""]","f","response","false"
"","","","","","html-keyboard-response","496","643996","0.0-7.0-2.30-0.30","758","<p>You can take a quick break now if you need it.</p>
      <p>Press the spacebar to continue.</p>"," ","",""
"","","","","","html-keyboard-response","497","644497","0.0-7.0-0.31","null","<div style=""font-size:60px;"">+</div>","null","fixation",""
"","","","","","video-keyboard-response","498","646199","0.0-7.0-1.31","1700","[""videos/med_low_c12_white.mov""]","j","response","false"
"","","","","","html-keyboard-response","499","646701","0.0-7.0-0.32","null","<div style=""font-size:60px;"">+</div>","null","fixation",""
"","","","","","video-keyboard-response","500","648194","0.0-7.0-1.32","1492","[""videos/fast_low_c5_white.mov""]","f","response","false"
"","","","","","html-keyboard-response","501","648696","0.0-7.0-0.33","null","<div style=""font-size:60px;"">+</div>","null","fixation",""
"","","","","","video-keyboard-response","502","650352","0.0-7.0-1.33","1654","[""videos/fast_high_c11_white_mirror.mov""]","f","response","false"
"","","","","","html-keyboard-response","503","651354","0.0-7.0-0.34","null","<div style=""font-size:60px;"">+</div>","null","fixation",""
"","","","","","video-keyboard-response","504","652851","0.0-7.0-1.34","1495","[""videos/med_low_c16_white_mirror.mov""]","j","response","false"
"","","","","","html-keyboard-response","505","653853","0.0-7.0-0.35","null","<div style=""font-size:60px;"">+</div>","null","fixation",""
"","","","","","video-keyboard-response","506","655563","0.0-7.0-1.35","1708","[""videos/med_low_c7_white_mirror.mov""]","f","response","false"
"","","","","","html-keyboard-response","507","656064","0.0-7.0-0.36","null","<div style=""font-size:60px;"">+</div>","null","fixation",""
"","","","","","video-keyboard-response","508","657386","0.0-7.0-1.36","1320","[""videos/fast_med_c11_white.mov""]","f","response","false"
"","","","","","html-keyboard-response","509","657887","0.0-7.0-0.37","null","<div style=""font-size:60px;"">+</div>","null","fixation",""
"","","","","","video-keyboard-response","510","659408","0.0-7.0-1.37","1520","[""videos/fast_high_c15_white.mov""]","f","response","false"
"","","","","","html-keyboard-response","511","660411","0.0-7.0-0.38","null","<div style=""font-size:60px;"">+</div>","null","fixation",""
"","","","","","video-keyboard-response","512","662014","0.0-7.0-1.38","1602","[""videos/slow_high_c1_white_mirror.mov""]","j","response","false"
"","","","","","html-keyboard-response","513","662767","0.0-7.0-0.39","null","<div style=""font-size:60px;"">+</div>","null","fixation",""
"","","","","","video-keyboard-response","514","664426","0.0-7.0-1.39","1658","[""videos/med_high_c5_white.mov""]","j","response","false"
"","","","","","html-keyboard-response","515","665428","0.0-7.0-0.40","null","<div style=""font-size:60px;"">+</div>","null","fixation",""
"","","","","","video-keyboard-response","516","667192","0.0-7.0-1.40","1762","[""videos/fast_high_c8_white_mirror.mov""]","f","response","false"
"","","","","","html-keyboard-response","517","668194","0.0-7.0-0.41","null","<div style=""font-size:60px;"">+</div>","null","fixation",""
"","","","","","video-keyboard-response","518","669672","0.0-7.0-1.41","1476","[""videos/fast_med_c15_white.mov""]","f","response","false"
"","","","","","html-keyboard-response","519","670424","0.0-7.0-0.42","null","<div style=""font-size:60px;"">+</div>","null","fixation",""
"","","","","","video-keyboard-response","520","672015","0.0-7.0-1.42","1590","[""videos/med_med_c4_white.mov""]","f","response","false"
"","","","","","html-keyboard-response","521","672767","0.0-7.0-0.43","null","<div style=""font-size:60px;"">+</div>","null","fixation",""
"","","","","","video-keyboard-response","522","674225","0.0-7.0-1.43","1457","[""videos/slow_low_c5_white.mov""]","j","response","false"
"","","","","","html-keyboard-response","523","674726","0.0-7.0-0.44","null","<div style=""font-size:60px;"">+</div>","null","fixation",""
"","","","","","video-keyboard-response","524","676226","0.0-7.0-1.44","1499","[""videos/slow_low_c4_white.mov""]","j","response","false"
"","","","","","html-keyboard-response","525","676978","0.0-7.0-0.45","null","<div style=""font-size:60px;"">+</div>","null","fixation",""
"","","","","","video-keyboard-response","526","678656","0.0-7.0-1.45","1676","[""videos/med_high_c10_white.mov""]","j","response","false"
"","","","","","html-keyboard-response","527","679658","0.0-7.0-0.46","null","<div style=""font-size:60px;"">+</div>","null","fixation",""
"","","","","","video-keyboard-response","528","681333","0.0-7.0-1.46","1673","[""videos/slow_high_c2_white.mov""]","f","response","false"
"","","","","","html-keyboard-response","529","682084","0.0-7.0-0.47","null","<div style=""font-size:60px;"">+</div>","null","fixation",""
"","","","","","video-keyboard-response","530","683605","0.0-7.0-1.47","1519","[""videos/slow_med_c4_white.mov""]","f","response","false"
"","","","","","html-keyboard-response","531","684606","0.0-7.0-0.48","null","<div style=""font-size:60px;"">+</div>","null","fixation",""
"","","","","","video-keyboard-response","532","686062","0.0-7.0-1.48","1454","[""videos/med_low_c2_white.mov""]","f","response","false"
"","","","","","html-keyboard-response","533","687064","0.0-7.0-0.49","null","<div style=""font-size:60px;"">+</div>","null","fixation",""
"","","","","","video-keyboard-response","534","688618","0.0-7.0-1.49","1553","[""videos/med_high_c7_white_mirror.mov""]","f","response","false"
"","","","","","html-keyboard-response","535","689120","0.0-7.0-0.50","null","<div style=""font-size:60px;"">+</div>","null","fixation",""
"","","","","","video-keyboard-response","536","690601","0.0-7.0-1.50","1479","[""videos/med_low_c5_white.mov""]","f","response","false"
"","","","","","html-keyboard-response","537","691371","0.0-7.0-2.50-0.50","769","<p>You can take a quick break now if you need it.</p>
      <p>Press the spacebar to continue.</p>"," ","",""
"","","","","","html-keyboard-response","538","692123","0.0-7.0-0.51","null","<div style=""font-size:60px;"">+</div>","null","fixation",""
"","","","","","video-keyboard-response","539","693539","0.0-7.0-1.51","1415","[""videos/fast_med_c16_white.mov""]","f","response","false"
"","","","","","html-keyboard-response","540","694041","0.0-7.0-0.52","null","<div style=""font-size:60px;"">+</div>","null","fixation",""
"","","","","","video-keyboard-response","541","695346","0.0-7.0-1.52","1304","[""videos/slow_med_c1_white.mov""]","f","response","false"
"","","","","","html-keyboard-response","542","696348","0.0-7.0-0.53","null","<div style=""font-size:60px;"">+</div>","null","fixation",""
"","","","","","video-keyboard-response","543","698175","0.0-7.0-1.53","1825","[""videos/fast_low_c16_white.mov""]","f","response","false"
"","","","","","html-keyboard-response","544","698677","0.0-7.0-0.54","null","<div style=""font-size:60px;"">+</div>","null","fixation",""
"","","","","","video-keyboard-response","545","700430","0.0-7.0-1.54","1752","[""videos/med_low_c8_white.mov""]","f","response","false"
"","","","","","html-keyboard-response","546","700932","0.0-7.0-0.55","null","<div style=""font-size:60px;"">+</div>","null","fixation",""
"","","","","","video-keyboard-response","547","702649","0.0-7.0-1.55","1716","[""videos/fast_low_c15_white_mirror.mov""]","f","response","false"
"","","","","","html-keyboard-response","548","703652","0.0-7.0-0.56","null","<div style=""font-size:60px;"">+</div>","null","fixation",""
"","","","","","video-keyboard-response","549","705597","0.0-7.0-1.56","1944","[""videos/slow_high_c6_white.mov""]","j","response","false"
"","","","","","html-keyboard-response","550","706599","0.0-7.0-0.57","null","<div style=""font-size:60px;"">+</div>","null","fixation",""
"","","","","","video-keyboard-response","551","708058","0.0-7.0-1.57","1458","[""videos/med_med_c1_white.mov""]","f","response","false"
"","","","","","html-keyboard-response","552","709060","0.0-7.0-0.58","null","<div style=""font-size:60px;"">+</div>","null","fixation",""
"","","","","","video-keyboard-response","553","710393","0.0-7.0-1.58","1331","[""videos/med_high_c1_white_mirror.mov""]","f","response","false"
"","","","","","html-keyboard-response","554","711146","0.0-7.0-0.59","null","<div style=""font-size:60px;"">+</div>","null","fixation",""
"","","","","","video-keyboard-response","555","712662","0.0-7.0-1.59","1515","[""videos/fast_low_c12_white_mirror.mov""]","f","response","false"
"","","","","","html-keyboard-response","556","713664","0.0-7.0-0.60","null","<div style=""font-size:60px;"">+</div>","null","fixation",""
"","","","","","video-keyboard-response","557","715194","0.0-7.0-1.60","1529","[""videos/slow_high_c4_white_mirror.mov""]","f","response","false"
"","","","","","html-keyboard-response","558","715696","0.0-7.0-0.61","null","<div style=""font-size:60px;"">+</div>","null","fixation",""
"","","","","","video-keyboard-response","559","717115","0.0-7.0-1.61","1418","[""videos/slow_low_c1_white_mirror.mov""]","f","response","false"
"","","","","","html-keyboard-response","560","717867","0.0-7.0-0.62","null","<div style=""font-size:60px;"">+</div>","null","fixation",""
"","","","","","video-keyboard-response","561","719220","0.0-7.0-1.62","1351","[""videos/slow_med_c2_white_mirror.mov""]","f","response","false"
"","","","","","html-keyboard-response","562","719722","0.0-7.0-0.63","null","<div style=""font-size:60px;"">+</div>","null","fixation",""
"","","","","","video-keyboard-response","563","721257","0.0-7.0-1.63","1534","[""videos/med_high_c3_white.mov""]","f","response","false"
"","","","","","html-keyboard-response","564","722259","0.0-7.0-0.64","null","<div style=""font-size:60px;"">+</div>","null","fixation",""
"","","","","","video-keyboard-response","565","723477","0.0-7.0-1.64","1217","[""videos/slow_med_c5_white_mirror.mov""]","f","response","false"
"","","","","","html-keyboard-response","566","730309","0.0-8.0","6831","<p>Thank you for completing the experiment.</p>"," ","",""
