"success","timeout","failed_images","failed_audio","failed_video","trial_type","trial_index","time_elapsed","internal_node_id","rt","stimulus","response","task","test_trial"
"true","false","[]","[]","[]","preload","0","1109","0.0-0.0","","","","",""
"","","","","","html-keyboard-response","1","9341","0.0-1.0","8231","Welcome to the experiment. Press any key to begin.","arrowdown","",""
"","","","","","html-keyboard-response","2","17894","0.0-2.0","8552","
        <p>In this experiment, you will be shown short movies containing two objects. One of the objects will be moving toward the other.</p>
        <p>In these movies, the moving object either collides with the stationary object, or it comes to a stop before reaching the stationary object.
          However, you will be shown a clipped version of the movie that does not reveal the ending.</p> 
        <p>Please watch each clip carefully. Then predict whether or not the two objects will collide later on in the video.</p>
        <p>Press the <b>""F""</b> key for <b>yes</b>, the objects will collide.</p> 
        <p>Press the <b>""J""</b> key for <b>no</b>, the objects will not collide.</p>
        <p>Press any key to start.</p>
      ","j","",""
"","","","","","html-keyboard-response","3","19899","0.0-3.0-0.0","null","<div style=""font-size:60px;"">+</div>","null","fixation",""
"","","","","","video-keyboard-response","4","24650","0.0-3.0-1.0","4749","[""videos/slow_high_c2_white.mov""]","f","response","false"
"","","","","","html-keyboard-response","5","25652","0.0-3.0-0.1","null","<div style=""font-size:60px;"">+</div>","null","fixation",""
"","","","","","video-keyboard-response","6","27130","0.0-3.0-1.1","1477","[""videos/fast_low_c15_white_mirror.mov""]","j","response","false"
"","","","","","html-keyboard-response","7","27883","0.0-3.0-0.2","null","<div style=""font-size:60px;"">+</div>","null","fixation",""
"","","","","","video-keyboard-response","8","29292","0.0-3.0-1.2","1408","[""videos/slow_med_c2_white.mov""]","f","response","false"
"","","","","","html-keyboard-response","9","30295","0.0-3.0-0.3","null","<div style=""font-size:60px;"">+</div>","null","fixation",""
"","","","","","video-keyboard-response","10","31657","0.0-3.0-1.3","1361","[""videos/med_med_c14_white_mirror.mov""]","j","response","false"
"","","","","","html-keyboard-response","11","32409","0.0-3.0-0.4","null","<div style=""font-size:60px;"">+</div>","null","fixation",""
"","","","","","video-keyboard-response","12","33882","0.0-3.0-1.4","1472","[""videos/fast_med_c15_white_mirror.mov""]","j","response","false"
"","","","","","html-keyboard-response","13","35118","0.0-4.0","1235","<p>You can take a quick break now if you need it.</p>
      <p>Press the spacebar to continue.</p>"," ","",""
"","","","","","html-keyboard-response","14","35619","0.0-5.0-0.0","null","<div style=""font-size:60px;"">+</div>","null","fixation",""
"","","","","","video-keyboard-response","15","37695","0.0-5.0-1.0","2075","[""videos/fast_med_c6_purple.mov""]","f","response","false"
"","","","","","html-keyboard-response","16","38696","0.0-5.0-0.1","null","<div style=""font-size:60px;"">+</div>","null","fixation",""
"","","","","","video-keyboard-response","17","40387","0.0-5.0-1.1","1690","[""videos/slow_med_c1_tan_mirror.mov""]","f","response","false"
"","","","","","html-keyboard-response","18","40888","0.0-5.0-0.2","null","<div style=""font-size:60px;"">+</div>","null","fixation",""
"","","","","","video-keyboard-response","19","41976","0.0-5.0-1.2","1087","[""videos/slow_med_c5_tan.mov""]","j","response","false"
"","","","","","html-keyboard-response","20","42979","0.0-5.0-0.3","null","<div style=""font-size:60px;"">+</div>","null","fixation",""
"","","","","","video-keyboard-response","21","44544","0.0-5.0-1.3","1564","[""videos/med_low_c7_teal.mov""]","j","response","false"
"","","","","","html-keyboard-response","22","45046","0.0-5.0-0.4","null","<div style=""font-size:60px;"">+</div>","null","fixation",""
"","","","","","video-keyboard-response","23","46164","0.0-5.0-1.4","1117","[""videos/slow_low_c12_tan_mirror.mov""]","j","response","false"
"","","","","","html-keyboard-response","24","46666","0.0-5.0-0.5","null","<div style=""font-size:60px;"">+</div>","null","fixation",""
"","","","","","video-keyboard-response","25","48290","0.0-5.0-1.5","1623","[""videos/slow_low_c7_tan_mirror.mov""]","j","response","false"
"","","","","","html-keyboard-response","26","49293","0.0-5.0-0.6","null","<div style=""font-size:60px;"">+</div>","null","fixation",""
"","","","","","video-keyboard-response","27","50576","0.0-5.0-1.6","1282","[""videos/slow_high_c6_purple_mirror.mov""]","j","response","false"
"","","","","","html-keyboard-response","28","51578","0.0-5.0-0.7","null","<div style=""font-size:60px;"">+</div>","null","fixation",""
"","","","","","video-keyboard-response","29","55210","0.0-5.0-1.7","3631","[""videos/slow_low_c3_teal.mov""]","f","response","false"
"","","","","","html-keyboard-response","30","55962","0.0-5.0-0.8","null","<div style=""font-size:60px;"">+</div>","null","fixation",""
"","","","","","video-keyboard-response","31","56959","0.0-5.0-1.8","996","[""videos/slow_med_c10_tan.mov""]","j","response","false"
"","","","","","html-keyboard-response","32","57961","0.0-5.0-0.9","null","<div style=""font-size:60px;"">+</div>","null","fixation",""
"","","","","","video-keyboard-response","33","59406","0.0-5.0-1.9","1444","[""videos/med_med_c6_pink_mirror.mov""]","j","response","false"
"","","","","","html-keyboard-response","34","59908","0.0-5.0-0.10","null","<div style=""font-size:60px;"">+</div>","null","fixation",""
"","","","","","video-keyboard-response","35","62058","0.0-5.0-1.10","2148","[""videos/med_med_c7_tan.mov""]","j","response","false"
"","","","","","html-keyboard-response","36","63059","0.0-5.0-0.11","null","<div style=""font-size:60px;"">+</div>","null","fixation",""
"","","","","","video-keyboard-response","37","64644","0.0-5.0-1.11","1583","[""videos/fast_med_c11_pink.mov""]","f","response","false"
"","","","","","html-keyboard-response","38","65396","0.0-5.0-0.12","null","<div style=""font-size:60px;"">+</div>","null","fixation",""
"","","","","","video-keyboard-response","39","66893","0.0-5.0-1.12","1496","[""videos/fast_med_c17_tan_mirror.mov""]","j","response","false"
"","","","","","html-keyboard-response","40","67645","0.0-5.0-0.13","null","<div style=""font-size:60px;"">+</div>","null","fixation",""
"","","","","","video-keyboard-response","41","68918","0.0-5.0-1.13","1272","[""videos/slow_low_c5_teal.mov""]","j","response","false"
"","","","","","html-keyboard-response","42","69671","0.0-5.0-0.14","null","<div style=""font-size:60px;"">+</div>","null","fixation",""
"","","","","","video-keyboard-response","43","72387","0.0-5.0-1.14","2715","[""videos/slow_high_c1_pink.mov""]","j","response","false"
"","","","","","html-keyboard-response","44","73522","0.0-5.0-2.14-0.14","1134","<p>You can take a quick break now if you need it.</p>
      <p>Press the spacebar to continue.</p>"," ","",""
"","","","","","html-keyboard-response","45","74524","0.0-5.0-0.15","null","<div style=""font-size:60px;"">+</div>","null","fixation",""
"","","","","","video-keyboard-response","46","75542","0.0-5.0-1.15","1016","[""videos/slow_med_c10_pink_mirror.mov""]","j","response","false"
"","","","","","html-keyboard-response","47","76544","0.0-5.0-0.16","null","<div style=""font-size:60px;"">+</div>","null","fixation",""
"","","","","","video-keyboard-response","48","77762","0.0-5.0-1.16","1216","[""videos/fast_low_c17_purple_mirror.mov""]","j","response","false"
"","","","","","html-keyboard-response","49","78263","0.0-5.0-0.17","null","<div style=""font-size:60px;"">+</div>","null","fixation",""
"","","","","","video-keyboard-response","50","79694","0.0-5.0-1.17","1429","[""videos/fast_med_c17_teal.mov""]","j","response","false"
"","","","","","html-keyboard-response","51","80445","0.0-5.0-0.18","null","<div style=""font-size:60px;"">+</div>","null","fixation",""
"","","","","","video-keyboard-response","52","81536","0.0-5.0-1.18","1089","[""videos/fast_high_c15_teal.mov""]","j","response","false"
"","","","","","html-keyboard-response","53","82289","0.0-5.0-0.19","null","<div style=""font-size:60px;"">+</div>","null","fixation",""
"","","","","","video-keyboard-response","54","84172","0.0-5.0-1.19","1882","[""videos/med_low_c2_purple_mirror.mov""]","j","response","false"
"","","","","","html-keyboard-response","55","85174","0.0-5.0-0.20","null","<div style=""font-size:60px;"">+</div>","null","fixation",""
"","","","","","video-keyboard-response","56","87742","0.0-5.0-1.20","2567","[""videos/slow_med_c3_tan_mirror.mov""]","f","response","false"
"","","","","","html-keyboard-response","57","88744","0.0-5.0-0.21","null","<div style=""font-size:60px;"">+</div>","null","fixation",""
"","","","","","video-keyboard-response","58","90061","0.0-5.0-1.21","1315","[""videos/fast_low_c12_purple_mirror.mov""]","j","response","false"
"","","","","","html-keyboard-response","59","90814","0.0-5.0-0.22","null","<div style=""font-size:60px;"">+</div>","null","fixation",""
"","","","","","video-keyboard-response","60","91706","0.0-5.0-1.22","891","[""videos/fast_high_c17_pink.mov""]","j","response","false"
"","","","","","html-keyboard-response","61","92458","0.0-5.0-0.23","null","<div style=""font-size:60px;"">+</div>","null","fixation",""
"","","","","","video-keyboard-response","62","93886","0.0-5.0-1.23","1426","[""videos/fast_med_c6_tan_mirror.mov""]","f","response","false"
"","","","","","html-keyboard-response","63","94638","0.0-5.0-0.24","null","<div style=""font-size:60px;"">+</div>","null","fixation",""
"","","","","","video-keyboard-response","64","95742","0.0-5.0-1.24","1103","[""videos/slow_high_c3_teal.mov""]","j","response","false"
"","","","","","html-keyboard-response","65","96744","0.0-5.0-0.25","null","<div style=""font-size:60px;"">+</div>","null","fixation",""
"","","","","","video-keyboard-response","66","97859","0.0-5.0-1.25","1114","[""videos/slow_high_c4_tan.mov""]","j","response","false"
"","","","","","html-keyboard-response","67","98611","0.0-5.0-0.26","null","<div style=""font-size:60px;"">+</div>","null","fixation",""
"","","","","","video-keyboard-response","68","100071","0.0-5.0-1.26","1459","[""videos/fast_high_c4_pink.mov""]","f","response","false"
"","","","","","html-keyboard-response","69","101073","0.0-5.0-0.27","null","<div style=""font-size:60px;"">+</div>","null","fixation",""
"","","","","","video-keyboard-response","70","103498","0.0-5.0-1.27","2424","[""videos/fast_med_c13_purple.mov""]","j","response","false"
"","","","","","html-keyboard-response","71","103999","0.0-5.0-0.28","null","<div style=""font-size:60px;"">+</div>","null","fixation",""
"","","","","","video-keyboard-response","72","105349","0.0-5.0-1.28","1349","[""videos/med_high_c8_tan.mov""]","j","response","false"
"","","","","","html-keyboard-response","73","105851","0.0-5.0-0.29","null","<div style=""font-size:60px;"">+</div>","null","fixation",""
"","","","","","video-keyboard-response","74","106817","0.0-5.0-1.29","965","[""videos/fast_high_c12_purple_mirror.mov""]","j","response","false"
"","","","","","html-keyboard-response","75","107820","0.0-5.0-0.30","null","<div style=""font-size:60px;"">+</div>","null","fixation",""
"","","","","","video-keyboard-response","76","108641","0.0-5.0-1.30","820","[""videos/slow_med_c7_pink_mirror.mov""]","j","response","false"
"","","","","","html-keyboard-response","77","109143","0.0-5.0-0.31","null","<div style=""font-size:60px;"">+</div>","null","fixation",""
"","","","","","video-keyboard-response","78","110023","0.0-5.0-1.31","878","[""videos/slow_high_c3_tan_mirror.mov""]","j","response","false"
"","","","","","html-keyboard-response","79","110525","0.0-5.0-0.32","null","<div style=""font-size:60px;"">+</div>","null","fixation",""
"","","","","","video-keyboard-response","80","111846","0.0-5.0-1.32","1320","[""videos/med_high_c7_tan.mov""]","j","response","false"
"","","","","","html-keyboard-response","81","112848","0.0-5.0-0.33","null","<div style=""font-size:60px;"">+</div>","null","fixation",""
"","","","","","video-keyboard-response","82","113908","0.0-5.0-1.33","1058","[""videos/med_high_c8_teal_mirror.mov""]","j","response","false"
"","","","","","html-keyboard-response","83","114910","0.0-5.0-0.34","null","<div style=""font-size:60px;"">+</div>","null","fixation",""
"","","","","","video-keyboard-response","84","117340","0.0-5.0-1.34","2429","[""videos/slow_med_c3_pink_mirror.mov""]","f","response","false"
"","","","","","html-keyboard-response","85","118116","0.0-5.0-2.34-0.34","775","<p>You can take a quick break now if you need it.</p>
      <p>Press the spacebar to continue.</p>"," ","",""
"","","","","","html-keyboard-response","86","118868","0.0-5.0-0.35","null","<div style=""font-size:60px;"">+</div>","null","fixation",""
"","","","","","video-keyboard-response","87","120248","0.0-5.0-1.35","1379","[""videos/med_high_c6_purple_mirror.mov""]","j","response","false"
"","","","","","html-keyboard-response","88","121249","0.0-5.0-0.36","null","<div style=""font-size:60px;"">+</div>","null","fixation",""
"","","","","","video-keyboard-response","89","122842","0.0-5.0-1.36","1591","[""videos/med_high_c1_purple.mov""]","f","response","false"
"","","","","","html-keyboard-response","90","123594","0.0-5.0-0.37","null","<div style=""font-size:60px;"">+</div>","null","fixation",""
"","","","","","video-keyboard-response","91","125519","0.0-5.0-1.37","1923","[""videos/fast_high_c8_teal.mov""]","f","response","false"
"","","","","","html-keyboard-response","92","126021","0.0-5.0-0.38","null","<div style=""font-size:60px;"">+</div>","null","fixation",""
"","","","","","video-keyboard-response","93","127414","0.0-5.0-1.38","1392","[""videos/fast_med_c16_purple.mov""]","j","response","false"
"","","","","","html-keyboard-response","94","128416","0.0-5.0-0.39","null","<div style=""font-size:60px;"">+</div>","null","fixation",""
"","","","","","video-keyboard-response","95","130490","0.0-5.0-1.39","2073","[""videos/fast_low_c16_teal.mov""]","j","response","false"
"","","","","","html-keyboard-response","96","131243","0.0-5.0-0.40","null","<div style=""font-size:60px;"">+</div>","null","fixation",""
"","","","","","video-keyboard-response","97","132409","0.0-5.0-1.40","1165","[""videos/fast_low_c17_teal.mov""]","j","response","false"
"","","","","","html-keyboard-response","98","133411","0.0-5.0-0.41","null","<div style=""font-size:60px;"">+</div>","null","fixation",""
"","","","","","video-keyboard-response","99","134584","0.0-5.0-1.41","1172","[""videos/slow_med_c7_teal.mov""]","j","response","false"
"","","","","","html-keyboard-response","100","135336","0.0-5.0-0.42","null","<div style=""font-size:60px;"">+</div>","null","fixation",""
"","","","","","video-keyboard-response","101","136272","0.0-5.0-1.42","934","[""videos/med_low_c8_teal_mirror.mov""]","j","response","false"
"","","","","","html-keyboard-response","102","136774","0.0-5.0-0.43","null","<div style=""font-size:60px;"">+</div>","null","fixation",""
"","","","","","video-keyboard-response","103","137723","0.0-5.0-1.43","948","[""videos/slow_high_c4_pink_mirror.mov""]","j","response","false"
"","","","","","html-keyboard-response","104","138725","0.0-5.0-0.44","null","<div style=""font-size:60px;"">+</div>","null","fixation",""
"","","","","","video-keyboard-response","105","139743","0.0-5.0-1.44","1016","[""videos/med_low_c8_tan.mov""]","j","response","false"
"","","","","","html-keyboard-response","106","140496","0.0-5.0-0.45","null","<div style=""font-size:60px;"">+</div>","null","fixation",""
"","","","","","video-keyboard-response","107","141542","0.0-5.0-1.45","1044","[""videos/slow_high_c13_purple_mirror.mov""]","j","response","false"
"","","","","","html-keyboard-response","108","142294","0.0-5.0-0.46","null","<div style=""font-size:60px;"">+</div>","null","fixation",""
"","","","","","video-keyboard-response","109","143774","0.0-5.0-1.46","1478","[""videos/med_med_c4_pink_mirror.mov""]","f","response","false"
"","","","","","html-keyboard-response","110","144276","0.0-5.0-0.47","null","<div style=""font-size:60px;"">+</div>","null","fixation",""
"","","","","","video-keyboard-response","111","146484","0.0-5.0-1.47","2207","[""videos/slow_low_c4_teal.mov""]","j","response","false"
"","","","","","html-keyboard-response","112","146986","0.0-5.0-0.48","null","<div style=""font-size:60px;"">+</div>","null","fixation",""
"","","","","","video-keyboard-response","113","148138","0.0-5.0-1.48","1151","[""videos/slow_low_c4_pink_mirror.mov""]","j","response","false"
"","","","","","html-keyboard-response","114","148640","0.0-5.0-0.49","null","<div style=""font-size:60px;"">+</div>","null","fixation",""
"","","","","","video-keyboard-response","115","150027","0.0-5.0-1.49","1386","[""videos/slow_med_c2_purple_mirror.mov""]","f","response","false"
"","","","","","html-keyboard-response","116","151029","0.0-5.0-0.50","null","<div style=""font-size:60px;"">+</div>","null","fixation",""
"","","","","","video-keyboard-response","117","152089","0.0-5.0-1.50","1058","[""videos/fast_high_c17_tan_mirror.mov""]","j","response","false"
"","","","","","html-keyboard-response","118","152591","0.0-5.0-0.51","null","<div style=""font-size:60px;"">+</div>","null","fixation",""
"","","","","","video-keyboard-response","119","155501","0.0-5.0-1.51","2909","[""videos/slow_med_c4_teal.mov""]","j","response","false"
"","","","","","html-keyboard-response","120","156503","0.0-5.0-0.52","null","<div style=""font-size:60px;"">+</div>","null","fixation",""
"","","","","","video-keyboard-response","121","157698","0.0-5.0-1.52","1193","[""videos/fast_low_c15_teal.mov""]","j","response","false"
"","","","","","html-keyboard-response","122","158449","0.0-5.0-0.53","null","<div style=""font-size:60px;"">+</div>","null","fixation",""
"","","","","","video-keyboard-response","123","159347","0.0-5.0-1.53","897","[""videos/med_med_c11_tan.mov""]","j","response","false"
"","","","","","html-keyboard-response","124","160099","0.0-5.0-0.54","null","<div style=""font-size:60px;"">+</div>","null","fixation",""
"","","","","","video-keyboard-response","125","161905","0.0-5.0-1.54","1805","[""videos/med_high_c6_teal.mov""]","j","response","false"
"","","","","","html-keyboard-response","126","162541","0.0-5.0-2.54-0.54","636","<p>You can take a quick break now if you need it.</p>
      <p>Press the spacebar to continue.</p>"," ","",""
"","","","","","html-keyboard-response","127","163294","0.0-5.0-0.55","null","<div style=""font-size:60px;"">+</div>","null","fixation",""
"","","","","","video-keyboard-response","128","164677","0.0-5.0-1.55","1382","[""videos/fast_low_c12_tan.mov""]","j","response","false"
"","","","","","html-keyboard-response","129","165679","0.0-5.0-0.56","null","<div style=""font-size:60px;"">+</div>","null","fixation",""
"","","","","","video-keyboard-response","130","167199","0.0-5.0-1.56","1517","[""videos/slow_high_c2_pink.mov""]","f","response","false"
"","","","","","html-keyboard-response","131","167700","0.0-5.0-0.57","null","<div style=""font-size:60px;"">+</div>","null","fixation",""
"","","","","","video-keyboard-response","132","169420","0.0-5.0-1.57","1719","[""videos/fast_low_c5_tan.mov""]","f","response","false"
"","","","","","html-keyboard-response","133","170171","0.0-5.0-0.58","null","<div style=""font-size:60px;"">+</div>","null","fixation",""
"","","","","","video-keyboard-response","134","171476","0.0-5.0-1.58","1303","[""videos/med_high_c7_pink_mirror.mov""]","j","response","false"
"","","","","","html-keyboard-response","135","171976","0.0-5.0-0.59","null","<div style=""font-size:60px;"">+</div>","null","fixation",""
"","","","","","video-keyboard-response","136","173582","0.0-5.0-1.59","1604","[""videos/slow_med_c4_purple_mirror.mov""]","j","response","false"
"","","","","","html-keyboard-response","137","174584","0.0-5.0-0.60","null","<div style=""font-size:60px;"">+</div>","null","fixation",""
"","","","","","video-keyboard-response","138","176953","0.0-5.0-1.60","2368","[""videos/fast_med_c14_teal.mov""]","f","response","false"
"","","","","","html-keyboard-response","139","177705","0.0-5.0-0.61","null","<div style=""font-size:60px;"">+</div>","null","fixation",""
"","","","","","video-keyboard-response","140","179991","0.0-5.0-1.61","2284","[""videos/med_low_c16_pink_mirror.mov""]","j","response","false"
"","","","","","html-keyboard-response","141","180492","0.0-5.0-0.62","null","<div style=""font-size:60px;"">+</div>","null","fixation",""
"","","","","","video-keyboard-response","142","182805","0.0-5.0-1.62","2313","[""videos/fast_high_c10_teal_mirror.mov""]","j","response","false"
"","","","","","html-keyboard-response","143","183808","0.0-5.0-0.63","null","<div style=""font-size:60px;"">+</div>","null","fixation",""
"","","","","","video-keyboard-response","144","186054","0.0-5.0-1.63","2245","[""videos/med_high_c5_purple.mov""]","j","response","false"
"","","","","","html-keyboard-response","145","186806","0.0-5.0-0.64","null","<div style=""font-size:60px;"">+</div>","null","fixation",""
"","","","","","video-keyboard-response","146","188091","0.0-5.0-1.64","1284","[""videos/slow_med_c2_pink_mirror.mov""]","f","response","false"
"","","","","","html-keyboard-response","147","188844","0.0-5.0-0.65","null","<div style=""font-size:60px;"">+</div>","null","fixation",""
"","","","","","video-keyboard-response","148","189784","0.0-5.0-1.65","939","[""videos/fast_high_c15_purple_mirror.mov""]","j","response","false"
"","","","","","html-keyboard-response","149","190536","0.0-5.0-0.66","null","<div style=""font-size:60px;"">+</div>","null","fixation",""
"","","","","","video-keyboard-response","150","191931","0.0-5.0-1.66","1393","[""videos/fast_low_c14_pink_mirror.mov""]","j","response","false"
"","","","","","html-keyboard-response","151","192431","0.0-5.0-0.67","null","<div style=""font-size:60px;"">+</div>","null","fixation",""
"","","","","","video-keyboard-response","152","194954","0.0-5.0-1.67","2522","[""videos/med_low_c5_teal.mov""]","j","response","false"
"","","","","","html-keyboard-response","153","195456","0.0-5.0-0.68","null","<div style=""font-size:60px;"">+</div>","null","fixation",""
"","","","","","video-keyboard-response","154","196834","0.0-5.0-1.68","1377","[""videos/med_low_c5_purple_mirror.mov""]","j","response","false"
"","","","","","html-keyboard-response","155","197586","0.0-5.0-0.69","null","<div style=""font-size:60px;"">+</div>","null","fixation",""
"","","","","","video-keyboard-response","156","198695","0.0-5.0-1.69","1107","[""videos/slow_high_c6_tan.mov""]","j","response","false"
"","","","","","html-keyboard-response","157","199447","0.0-5.0-0.70","null","<div style=""font-size:60px;"">+</div>","null","fixation",""
"","","","","","video-keyboard-response","158","200911","0.0-5.0-1.70","1462","[""videos/slow_low_c3_pink_mirror.mov""]","j","response","false"
"","","","","","html-keyboard-response","159","201413","0.0-5.0-0.71","null","<div style=""font-size:60px;"">+</div>","null","fixation",""
"","","","","","video-keyboard-response","160","209047","0.0-5.0-1.71","7632","[""videos/med_high_c13_teal.mov""]","j","response","false"
"","","","","","html-keyboard-response","161","209547","0.0-5.0-0.72","null","<div style=""font-size:60px;"">+</div>","null","fixation",""
"","","","","","video-keyboard-response","162","211232","0.0-5.0-1.72","1683","[""videos/fast_med_c16_teal_mirror.mov""]","j","response","false"
"","","","","","html-keyboard-response","163","212235","0.0-5.0-0.73","null","<div style=""font-size:60px;"">+</div>","null","fixation",""
"","","","","","video-keyboard-response","164","215223","0.0-5.0-1.73","2987","[""videos/med_med_c4_tan.mov""]","f","response","false"
"","","","","","html-keyboard-response","165","215724","0.0-5.0-0.74","null","<div style=""font-size:60px;"">+</div>","null","fixation",""
"","","","","","video-keyboard-response","166","216727","0.0-5.0-1.74","1002","[""videos/med_med_c14_purple_mirror.mov""]","j","response","false"
"","","","","","html-keyboard-response","167","219721","0.0-5.0-2.74-0.74","2993","<p>You can take a quick break now if you need it.</p>
      <p>Press the spacebar to continue.</p>"," ","",""
"","","","","","html-keyboard-response","168","220222","0.0-5.0-0.75","null","<div style=""font-size:60px;"">+</div>","null","fixation",""
"","","","","","video-keyboard-response","169","221750","0.0-5.0-1.75","1526","[""videos/slow_low_c1_purple_mirror.mov""]","f","response","false"
"","","","","","html-keyboard-response","170","222502","0.0-5.0-0.76","null","<div style=""font-size:60px;"">+</div>","null","fixation",""
"","","","","","video-keyboard-response","171","223592","0.0-5.0-1.76","1089","[""videos/slow_low_c5_tan_mirror.mov""]","j","response","false"
"","","","","","html-keyboard-response","172","224595","0.0-5.0-0.77","null","<div style=""font-size:60px;"">+</div>","null","fixation",""
"","","","","","video-keyboard-response","173","226508","0.0-5.0-1.77","1911","[""videos/fast_med_c11_teal_mirror.mov""]","f","response","false"
"","","","","","html-keyboard-response","174","227510","0.0-5.0-0.78","null","<div style=""font-size:60px;"">+</div>","null","fixation",""
"","","","","","video-keyboard-response","175","228604","0.0-5.0-1.78","1093","[""videos/fast_low_c16_pink_mirror.mov""]","j","response","false"
"","","","","","html-keyboard-response","176","229606","0.0-5.0-0.79","null","<div style=""font-size:60px;"">+</div>","null","fixation",""
"","","","","","video-keyboard-response","177","232354","0.0-5.0-1.79","2746","[""videos/fast_med_c15_pink_mirror.mov""]","j","response","false"
"","","","","","html-keyboard-response","178","232855","0.0-5.0-0.80","null","<div style=""font-size:60px;"">+</div>","null","fixation",""
"","","","","","video-keyboard-response","179","233954","0.0-5.0-1.80","1097","[""videos/fast_low_c16_purple.mov""]","j","response","false"
"","","","","","html-keyboard-response","180","234955","0.0-5.0-0.81","null","<div style=""font-size:60px;"">+</div>","null","fixation",""
"","","","","","video-keyboard-response","181","236474","0.0-5.0-1.81","1517","[""videos/med_high_c10_tan.mov""]","j","response","false"
"","","","","","html-keyboard-response","182","237476","0.0-5.0-0.82","null","<div style=""font-size:60px;"">+</div>","null","fixation",""
"","","","","","video-keyboard-response","183","239579","0.0-5.0-1.82","2102","[""videos/med_low_c10_purple.mov""]","j","response","false"
"","","","","","html-keyboard-response","184","240080","0.0-5.0-0.83","null","<div style=""font-size:60px;"">+</div>","null","fixation",""
"","","","","","video-keyboard-response","185","241585","0.0-5.0-1.83","1504","[""videos/fast_med_c16_tan_mirror.mov""]","j","response","false"
"","","","","","html-keyboard-response","186","242086","0.0-5.0-0.84","null","<div style=""font-size:60px;"">+</div>","null","fixation",""
"","","","","","video-keyboard-response","187","243963","0.0-5.0-1.84","1875","[""videos/med_med_c11_pink_mirror.mov""]","j","response","false"
"","","","","","html-keyboard-response","188","244963","0.0-5.0-0.85","null","<div style=""font-size:60px;"">+</div>","null","fixation",""
"","","","","","video-keyboard-response","189","246835","0.0-5.0-1.85","1871","[""videos/fast_high_c11_tan.mov""]","j","response","false"
"","","","","","html-keyboard-response","190","247587","0.0-5.0-0.86","null","<div style=""font-size:60px;"">+</div>","null","fixation",""
"","","","","","video-keyboard-response","191","249002","0.0-5.0-1.86","1413","[""videos/fast_med_c15_purple_mirror.mov""]","j","response","false"
"","","","","","html-keyboard-response","192","249754","0.0-5.0-0.87","null","<div style=""font-size:60px;"">+</div>","null","fixation",""
"","","","","","video-keyboard-response","193","255904","0.0-5.0-1.87","6148","[""videos/slow_med_c2_tan.mov""]","j","response","false"
"","","","","","html-keyboard-response","194","256656","0.0-5.0-0.88","null","<div style=""font-size:60px;"">+</div>","null","fixation",""
"","","","","","video-keyboard-response","195","258042","0.0-5.0-1.88","1384","[""videos/fast_high_c4_purple_mirror.mov""]","f","response","false"
"","","","","","html-keyboard-response","196","258795","0.0-5.0-0.89","null","<div style=""font-size:60px;"">+</div>","null","fixation",""
"","","","","","video-keyboard-response","197","259814","0.0-5.0-1.89","1018","[""videos/med_low_c9_tan.mov""]","j","response","false"
"","","","","","html-keyboard-response","198","260816","0.0-5.0-0.90","null","<div style=""font-size:60px;"">+</div>","null","fixation",""
"","","","","","video-keyboard-response","199","262414","0.0-5.0-1.90","1596","[""videos/slow_low_c2_teal.mov""]","f","response","false"
"","","","","","html-keyboard-response","200","263416","0.0-5.0-0.91","null","<div style=""font-size:60px;"">+</div>","null","fixation",""
"","","","","","video-keyboard-response","201","264571","0.0-5.0-1.91","1153","[""videos/slow_low_c2_tan_mirror.mov""]","j","response","false"
"","","","","","html-keyboard-response","202","265072","0.0-5.0-0.92","null","<div style=""font-size:60px;"">+</div>","null","fixation",""
"","","","","","video-keyboard-response","203","266449","0.0-5.0-1.92","1376","[""videos/slow_high_c2_tan_mirror.mov""]","f","response","false"
"","","","","","html-keyboard-response","204","267201","0.0-5.0-0.93","null","<div style=""font-size:60px;"">+</div>","null","fixation",""
"","","","","","video-keyboard-response","205","268351","0.0-5.0-1.93","1148","[""videos/slow_low_c7_purple.mov""]","j","response","false"
"","","","","","html-keyboard-response","206","269103","0.0-5.0-0.94","null","<div style=""font-size:60px;"">+</div>","null","fixation",""
"","","","","","video-keyboard-response","207","270762","0.0-5.0-1.94","1658","[""videos/fast_high_c13_pink.mov""]","j","response","false"
"","","","","","html-keyboard-response","208","271529","0.0-5.0-2.94-0.94","766","<p>You can take a quick break now if you need it.</p>
      <p>Press the spacebar to continue.</p>"," ","",""
"","","","","","html-keyboard-response","209","272030","0.0-5.0-0.95","null","<div style=""font-size:60px;"">+</div>","null","fixation",""
"","","","","","video-keyboard-response","210","273490","0.0-5.0-1.95","1458","[""videos/slow_low_c1_pink.mov""]","f","response","false"
"","","","","","html-keyboard-response","211","273991","0.0-5.0-0.96","null","<div style=""font-size:60px;"">+</div>","null","fixation",""
"","","","","","video-keyboard-response","212","276748","0.0-5.0-1.96","2755","[""videos/fast_low_c14_teal.mov""]","j","response","false"
"","","","","","html-keyboard-response","213","277501","0.0-5.0-0.97","null","<div style=""font-size:60px;"">+</div>","null","fixation",""
"","","","","","video-keyboard-response","214","279894","0.0-5.0-1.97","2392","[""videos/fast_high_c10_tan.mov""]","j","response","false"
"","","","","","html-keyboard-response","215","280395","0.0-5.0-0.98","null","<div style=""font-size:60px;"">+</div>","null","fixation",""
"","","","","","video-keyboard-response","216","282138","0.0-5.0-1.98","1742","[""videos/slow_high_c1_tan.mov""]","f","response","false"
"","","","","","html-keyboard-response","217","282891","0.0-5.0-0.99","null","<div style=""font-size:60px;"">+</div>","null","fixation",""
"","","","","","video-keyboard-response","218","285328","0.0-5.0-1.99","2436","[""videos/fast_med_c14_pink_mirror.mov""]","f","response","false"
"","","","","","html-keyboard-response","219","286330","0.0-5.0-0.100","null","<div style=""font-size:60px;"">+</div>","null","fixation",""
"","","","","","video-keyboard-response","220","287805","0.0-5.0-1.100","1474","[""videos/fast_high_c13_teal_mirror.mov""]","j","response","false"
"","","","","","html-keyboard-response","221","288807","0.0-5.0-0.101","null","<div style=""font-size:60px;"">+</div>","null","fixation",""
"","","","","","video-keyboard-response","222","289819","0.0-5.0-1.101","1010","[""videos/slow_low_c12_teal.mov""]","j","response","false"
"","","","","","html-keyboard-response","223","290321","0.0-5.0-0.102","null","<div style=""font-size:60px;"">+</div>","null","fixation",""
"","","","","","video-keyboard-response","224","292559","0.0-5.0-1.102","2237","[""videos/slow_high_c1_purple_mirror.mov""]","j","response","false"
"","","","","","html-keyboard-response","225","293310","0.0-5.0-0.103","null","<div style=""font-size:60px;"">+</div>","null","fixation",""
"","","","","","video-keyboard-response","226","294936","0.0-5.0-1.103","1625","[""videos/med_low_c10_tan_mirror.mov""]","j","response","false"
"","","","","","html-keyboard-response","227","295689","0.0-5.0-0.104","null","<div style=""font-size:60px;"">+</div>","null","fixation",""
"","","","","","video-keyboard-response","228","297415","0.0-5.0-1.104","1724","[""videos/med_med_c14_tan.mov""]","j","response","false"
"","","","","","html-keyboard-response","229","298167","0.0-5.0-0.105","null","<div style=""font-size:60px;"">+</div>","null","fixation",""
"","","","","","video-keyboard-response","230","299830","0.0-5.0-1.105","1662","[""videos/med_med_c8_pink_mirror.mov""]","j","response","false"
"","","","","","html-keyboard-response","231","300332","0.0-5.0-0.106","null","<div style=""font-size:60px;"">+</div>","null","fixation",""
"","","","","","video-keyboard-response","232","301859","0.0-5.0-1.106","1526","[""videos/fast_med_c13_pink_mirror.mov""]","f","response","false"
"","","","","","html-keyboard-response","233","302861","0.0-5.0-0.107","null","<div style=""font-size:60px;"">+</div>","null","fixation",""
"","","","","","video-keyboard-response","234","304118","0.0-5.0-1.107","1255","[""videos/fast_low_c15_tan_mirror.mov""]","j","response","false"
"","","","","","html-keyboard-response","235","304619","0.0-5.0-0.108","null","<div style=""font-size:60px;"">+</div>","null","fixation",""
"","","","","","video-keyboard-response","236","306095","0.0-5.0-1.108","1475","[""videos/slow_high_c2_teal_mirror.mov""]","f","response","false"
"","","","","","html-keyboard-response","237","306848","0.0-5.0-0.109","null","<div style=""font-size:60px;"">+</div>","null","fixation",""
"","","","","","video-keyboard-response","238","309244","0.0-5.0-1.109","2395","[""videos/fast_low_c16_tan_mirror.mov""]","j","response","false"
"","","","","","html-keyboard-response","239","309746","0.0-5.0-0.110","null","<div style=""font-size:60px;"">+</div>","null","fixation",""
"","","","","","video-keyboard-response","240","311885","0.0-5.0-1.110","2137","[""videos/med_med_c6_tan.mov""]","f","response","false"
"","","","","","html-keyboard-response","241","312386","0.0-5.0-0.111","null","<div style=""font-size:60px;"">+</div>","null","fixation",""
"","","","","","video-keyboard-response","242","313442","0.0-5.0-1.111","1054","[""videos/med_low_c16_purple.mov""]","j","response","false"
"","","","","","html-keyboard-response","243","314444","0.0-5.0-0.112","null","<div style=""font-size:60px;"">+</div>","null","fixation",""
"","","","","","video-keyboard-response","244","318790","0.0-5.0-1.112","4344","[""videos/fast_high_c12_pink.mov""]","j","response","false"
"","","","","","html-keyboard-response","245","319291","0.0-5.0-0.113","null","<div style=""font-size:60px;"">+</div>","null","fixation",""
"","","","","","video-keyboard-response","246","321452","0.0-5.0-1.113","2159","[""videos/med_med_c7_purple_mirror.mov""]","j","response","false"
"","","","","","html-keyboard-response","247","322204","0.0-5.0-0.114","null","<div style=""font-size:60px;"">+</div>","null","fixation",""
"","","","","","video-keyboard-response","248","323325","0.0-5.0-1.114","1120","[""videos/med_low_c12_purple.mov""]","j","response","false"
"","","","","","html-keyboard-response","249","324336","0.0-5.0-2.114-0.114","1011","<p>You can take a quick break now if you need it.</p>
      <p>Press the spacebar to continue.</p>"," ","",""
"","","","","","html-keyboard-response","250","325338","0.0-5.0-0.115","null","<div style=""font-size:60px;"">+</div>","null","fixation",""
"","","","","","video-keyboard-response","251","326310","0.0-5.0-1.115","970","[""videos/fast_low_c17_pink_mirror.mov""]","j","response","false"
"","","","","","html-keyboard-response","252","327312","0.0-5.0-0.116","null","<div style=""font-size:60px;"">+</div>","null","fixation",""
"","","","","","video-keyboard-response","253","328849","0.0-5.0-1.116","1536","[""videos/slow_low_c2_purple_mirror.mov""]","f","response","false"
"","","","","","html-keyboard-response","254","329851","0.0-5.0-0.117","null","<div style=""font-size:60px;"">+</div>","null","fixation",""
"","","","","","video-keyboard-response","255","332708","0.0-5.0-1.117","2856","[""videos/fast_high_c11_pink_mirror.mov""]","f","response","false"
"","","","","","html-keyboard-response","256","333209","0.0-5.0-0.118","null","<div style=""font-size:60px;"">+</div>","null","fixation",""
"","","","","","video-keyboard-response","257","334529","0.0-5.0-1.118","1318","[""videos/med_med_c1_purple_mirror.mov""]","f","response","false"
"","","","","","html-keyboard-response","258","335281","0.0-5.0-0.119","null","<div style=""font-size:60px;"">+</div>","null","fixation",""
"","","","","","video-keyboard-response","259","336314","0.0-5.0-1.119","1031","[""videos/med_low_c12_teal_mirror.mov""]","j","response","false"
"","","","","","html-keyboard-response","260","337066","0.0-5.0-0.120","null","<div style=""font-size:60px;"">+</div>","null","fixation",""
"","","","","","video-keyboard-response","261","338462","0.0-5.0-1.120","1395","[""videos/med_high_c3_pink_mirror.mov""]","f","response","false"
"","","","","","html-keyboard-response","262","339465","0.0-5.0-0.121","null","<div style=""font-size:60px;"">+</div>","null","fixation",""
"","","","","","video-keyboard-response","263","341322","0.0-5.0-1.121","1856","[""videos/med_high_c5_tan_mirror.mov""]","f","response","false"
"","","","","","html-keyboard-response","264","342074","0.0-5.0-0.122","null","<div style=""font-size:60px;"">+</div>","null","fixation",""
"","","","","","video-keyboard-response","265","343413","0.0-5.0-1.122","1338","[""videos/fast_low_c17_tan.mov""]","j","response","false"
"","","","","","html-keyboard-response","266","344415","0.0-5.0-0.123","null","<div style=""font-size:60px;"">+</div>","null","fixation",""
"","","","","","video-keyboard-response","267","345621","0.0-5.0-1.123","1205","[""videos/med_low_c7_pink_mirror.mov""]","j","response","false"
"","","","","","html-keyboard-response","268","346123","0.0-5.0-0.124","null","<div style=""font-size:60px;"">+</div>","null","fixation",""
"","","","","","video-keyboard-response","269","347448","0.0-5.0-1.124","1324","[""videos/slow_med_c1_purple.mov""]","f","response","false"
"","","","","","html-keyboard-response","270","348450","0.0-5.0-0.125","null","<div style=""font-size:60px;"">+</div>","null","fixation",""
"","","","","","video-keyboard-response","271","351261","0.0-5.0-1.125","2810","[""videos/slow_med_c5_teal_mirror.mov""]","j","response","false"
"","","","","","html-keyboard-response","272","351763","0.0-5.0-0.126","null","<div style=""font-size:60px;"">+</div>","null","fixation",""
"","","","","","video-keyboard-response","273","353435","0.0-5.0-1.126","1670","[""videos/slow_high_c1_teal_mirror.mov""]","f","response","false"
"","","","","","html-keyboard-response","274","354436","0.0-5.0-0.127","null","<div style=""font-size:60px;"">+</div>","null","fixation",""
"","","","","","video-keyboard-response","275","355865","0.0-5.0-1.127","1428","[""videos/med_low_c2_teal.mov""]","j","response","false"
"","","","","","html-keyboard-response","276","356868","0.0-5.0-0.128","null","<div style=""font-size:60px;"">+</div>","null","fixation",""
"","","","","","video-keyboard-response","277","358492","0.0-5.0-1.128","1623","[""videos/med_med_c9_teal.mov""]","j","response","false"
"","","","","","html-keyboard-response","278","358994","0.0-5.0-0.129","null","<div style=""font-size:60px;"">+</div>","null","fixation",""
"","","","","","video-keyboard-response","279","360769","0.0-5.0-1.129","1774","[""videos/fast_med_c15_teal.mov""]","j","response","false"
"","","","","","html-keyboard-response","280","361771","0.0-5.0-0.130","null","<div style=""font-size:60px;"">+</div>","null","fixation",""
"","","","","","video-keyboard-response","281","363262","0.0-5.0-1.130","1489","[""videos/med_med_c9_purple_mirror.mov""]","j","response","false"
"","","","","","html-keyboard-response","282","364264","0.0-5.0-0.131","null","<div style=""font-size:60px;"">+</div>","null","fixation",""
"","","","","","video-keyboard-response","283","365687","0.0-5.0-1.131","1422","[""videos/med_med_c8_tan.mov""]","j","response","false"
"","","","","","html-keyboard-response","284","366439","0.0-5.0-0.132","null","<div style=""font-size:60px;"">+</div>","null","fixation",""
"","","","","","video-keyboard-response","285","368157","0.0-5.0-1.132","1716","[""videos/slow_high_c2_purple.mov""]","f","response","false"
"","","","","","html-keyboard-response","286","369159","0.0-5.0-0.133","null","<div style=""font-size:60px;"">+</div>","null","fixation",""
"","","","","","video-keyboard-response","287","370450","0.0-5.0-1.133","1290","[""videos/med_low_c9_pink_mirror.mov""]","j","response","false"
"","","","","","html-keyboard-response","288","371453","0.0-5.0-0.134","null","<div style=""font-size:60px;"">+</div>","null","fixation",""
"","","","","","video-keyboard-response","289","372848","0.0-5.0-1.134","1394","[""videos/fast_high_c8_purple_mirror.mov""]","f","response","false"
"","","","","","html-keyboard-response","290","373578","0.0-5.0-2.134-0.134","731","<p>You can take a quick break now if you need it.</p>
      <p>Press the spacebar to continue.</p>"," ","",""
"","","","","","html-keyboard-response","291","374581","0.0-5.0-0.135","null","<div style=""font-size:60px;"">+</div>","null","fixation",""
"","","","","","video-keyboard-response","292","376187","0.0-5.0-1.135","1604","[""videos/slow_low_c3_purple_mirror.mov""]","j","response","false"
"","","","","","html-keyboard-response","293","377188","0.0-5.0-0.136","null","<div style=""font-size:60px;"">+</div>","null","fixation",""
"","","","","","video-keyboard-response","294","380500","0.0-5.0-1.136","3310","[""videos/med_high_c1_teal_mirror.mov""]","f","response","false"
"","","","","","html-keyboard-response","295","381502","0.0-5.0-0.137","null","<div style=""font-size:60px;"">+</div>","null","fixation",""
"","","","","","video-keyboard-response","296","382984","0.0-5.0-1.137","1481","[""videos/med_high_c3_purple.mov""]","f","response","false"
"","","","","","html-keyboard-response","297","383985","0.0-5.0-0.138","null","<div style=""font-size:60px;"">+</div>","null","fixation",""
"","","","","","video-keyboard-response","298","385280","0.0-5.0-1.138","1293","[""videos/med_med_c1_tan.mov""]","f","response","false"
"","","","","","html-keyboard-response","299","386282","0.0-5.0-0.139","null","<div style=""font-size:60px;"">+</div>","null","fixation",""
"","","","","","video-keyboard-response","300","387303","0.0-5.0-1.139","1020","[""videos/med_high_c13_pink_mirror.mov""]","j","response","false"
"","","","","","html-keyboard-response","301","388305","0.0-5.0-0.140","null","<div style=""font-size:60px;"">+</div>","null","fixation",""
"","","","","","video-keyboard-response","302","390225","0.0-5.0-1.140","1918","[""videos/slow_med_c3_purple.mov""]","f","response","false"
"","","","","","html-keyboard-response","303","391226","0.0-5.0-0.141","null","<div style=""font-size:60px;"">+</div>","null","fixation",""
"","","","","","video-keyboard-response","304","392649","0.0-5.0-1.141","1422","[""videos/fast_low_c5_teal_mirror.mov""]","f","response","false"
"","","","","","html-keyboard-response","305","393651","0.0-5.0-0.142","null","<div style=""font-size:60px;"">+</div>","null","fixation",""
"","","","","","video-keyboard-response","306","394961","0.0-5.0-1.142","1308","[""videos/med_high_c10_pink_mirror.mov""]","j","response","false"
"","","","","","html-keyboard-response","307","395713","0.0-5.0-0.143","null","<div style=""font-size:60px;"">+</div>","null","fixation",""
"","","","","","video-keyboard-response","308","396674","0.0-5.0-1.143","960","[""videos/slow_high_c13_teal.mov""]","j","response","false"
"","","","","","html-keyboard-response","309","397787","0.0-6.0","1113","<p>You can take a quick break now if you need it.</p>
      <p>Press the spacebar to continue.</p>"," ","",""
"","","","","","html-keyboard-response","310","398789","0.0-7.0-0.0","null","<div style=""font-size:60px;"">+</div>","null","fixation",""
"","","","","","video-keyboard-response","311","400664","0.0-7.0-1.0","1873","[""videos/med_low_c12_white.mov""]","j","response","false"
"","","","","","html-keyboard-response","312","401416","0.0-7.0-0.1","null","<div style=""font-size:60px;"">+</div>","null","fixation",""
"","","","","","video-keyboard-response","313","405083","0.0-7.0-1.1","3665","[""videos/slow_med_c3_white.mov""]","f","response","false"
"","","","","","html-keyboard-response","314","406084","0.0-7.0-0.2","null","<div style=""font-size:60px;"">+</div>","null","fixation",""
"","","","","","video-keyboard-response","315","409065","0.0-7.0-1.2","2980","[""videos/fast_low_c12_white_mirror.mov""]","j","response","false"
"","","","","","html-keyboard-response","316","409816","0.0-7.0-0.3","null","<div style=""font-size:60px;"">+</div>","null","fixation",""
"","","","","","video-keyboard-response","317","411830","0.0-7.0-1.3","2012","[""videos/slow_high_c2_white.mov""]","f","response","false"
"","","","","","html-keyboard-response","318","412332","0.0-7.0-0.4","null","<div style=""font-size:60px;"">+</div>","null","fixation",""
"","","","","","video-keyboard-response","319","413834","0.0-7.0-1.4","1501","[""videos/fast_high_c4_white_mirror.mov""]","f","response","false"
"","","","","","html-keyboard-response","320","414836","0.0-7.0-0.5","null","<div style=""font-size:60px;"">+</div>","null","fixation",""
"","","","","","video-keyboard-response","321","416729","0.0-7.0-1.5","1891","[""videos/med_high_c1_white.mov""]","f","response","false"
"","","","","","html-keyboard-response","322","417231","0.0-7.0-0.6","null","<div style=""font-size:60px;"">+</div>","null","fixation",""
"","","","","","video-keyboard-response","323","418408","0.0-7.0-1.6","1175","[""videos/slow_high_c3_white_mirror.mov""]","j","response","false"
"","","","","","html-keyboard-response","324","419410","0.0-7.0-0.7","null","<div style=""font-size:60px;"">+</div>","null","fixation",""
"","","","","","video-keyboard-response","325","421213","0.0-7.0-1.7","1801","[""videos/slow_med_c2_white.mov""]","f","response","false"
"","","","","","html-keyboard-response","326","422215","0.0-7.0-0.8","null","<div style=""font-size:60px;"">+</div>","null","fixation",""
"","","","","","video-keyboard-response","327","424727","0.0-7.0-1.8","2510","[""videos/fast_low_c15_white.mov""]","j","response","false"
"","","","","","html-keyboard-response","328","425728","0.0-7.0-0.9","null","<div style=""font-size:60px;"">+</div>","null","fixation",""
"","","","","","video-keyboard-response","329","428201","0.0-7.0-1.9","2472","[""videos/fast_low_c14_white.mov""]","j","response","false"
"","","","","","html-keyboard-response","330","429203","0.0-7.0-0.10","null","<div style=""font-size:60px;"">+</div>","null","fixation",""
"","","","","","video-keyboard-response","331","435818","0.0-7.0-1.10","6614","[""videos/fast_med_c15_white.mov""]","j","response","false"
"","","","","","html-keyboard-response","332","436651","0.0-7.0-2.10-0.10","833","<p>You can take a quick break now if you need it.</p>
      <p>Press the spacebar to continue.</p>"," ","",""
"","","","","","html-keyboard-response","333","437654","0.0-7.0-0.11","null","<div style=""font-size:60px;"">+</div>","null","fixation",""
"","","","","","video-keyboard-response","334","440600","0.0-7.0-1.11","2945","[""videos/slow_low_c5_white.mov""]","j","response","false"
"","","","","","html-keyboard-response","335","441102","0.0-7.0-0.12","null","<div style=""font-size:60px;"">+</div>","null","fixation",""
"","","","","","video-keyboard-response","336","441995","0.0-7.0-1.12","892","[""videos/med_med_c11_white_mirror.mov""]","j","response","false"
"","","","","","html-keyboard-response","337","442747","0.0-7.0-0.13","null","<div style=""font-size:60px;"">+</div>","null","fixation",""
"","","","","","video-keyboard-response","338","444009","0.0-7.0-1.13","1261","[""videos/med_low_c5_white_mirror.mov""]","f","response","false"
"","","","","","html-keyboard-response","339","444511","0.0-7.0-0.14","null","<div style=""font-size:60px;"">+</div>","null","fixation",""
"","","","","","video-keyboard-response","340","447229","0.0-7.0-1.14","2717","[""videos/med_med_c7_white.mov""]","f","response","false"
"","","","","","html-keyboard-response","341","447981","0.0-7.0-0.15","null","<div style=""font-size:60px;"">+</div>","null","fixation",""
"","","","","","video-keyboard-response","342","456023","0.0-7.0-1.15","8040","[""videos/med_low_c2_white.mov""]","j","response","false"
"","","","","","html-keyboard-response","343","456774","0.0-7.0-0.16","null","<div style=""font-size:60px;"">+</div>","null","fixation",""
"","","","","","video-keyboard-response","344","458573","0.0-7.0-1.16","1797","[""videos/fast_high_c17_white_mirror.mov""]","j","response","false"
"","","","","","html-keyboard-response","345","459075","0.0-7.0-0.17","null","<div style=""font-size:60px;"">+</div>","null","fixation",""
"","","","","","video-keyboard-response","346","460449","0.0-7.0-1.17","1373","[""videos/fast_low_c5_white.mov""]","f","response","false"
"","","","","","html-keyboard-response","347","461201","0.0-7.0-0.18","null","<div style=""font-size:60px;"">+</div>","null","fixation",""
"","","","","","video-keyboard-response","348","462568","0.0-7.0-1.18","1365","[""videos/fast_high_c15_white.mov""]","j","response","false"
"","","","","","html-keyboard-response","349","463570","0.0-7.0-0.19","null","<div style=""font-size:60px;"">+</div>","null","fixation",""
"","","","","","video-keyboard-response","350","465054","0.0-7.0-1.19","1482","[""videos/fast_low_c16_white_mirror.mov""]","j","response","false"
"","","","","","html-keyboard-response","351","465556","0.0-7.0-0.20","null","<div style=""font-size:60px;"">+</div>","null","fixation",""
"","","","","","video-keyboard-response","352","467589","0.0-7.0-1.20","2032","[""videos/med_high_c8_white.mov""]","j","response","false"
"","","","","","html-keyboard-response","353","468092","0.0-7.0-0.21","null","<div style=""font-size:60px;"">+</div>","null","fixation",""
"","","","","","video-keyboard-response","354","469476","0.0-7.0-1.21","1383","[""videos/slow_low_c3_white.mov""]","f","response","false"
"","","","","","html-keyboard-response","355","470227","0.0-7.0-0.22","null","<div style=""font-size:60px;"">+</div>","null","fixation",""
"","","","","","video-keyboard-response","356","471952","0.0-7.0-1.22","1723","[""videos/med_high_c5_white_mirror.mov""]","j","response","false"
"","","","","","html-keyboard-response","357","472453","0.0-7.0-0.23","null","<div style=""font-size:60px;"">+</div>","null","fixation",""
"","","","","","video-keyboard-response","358","473774","0.0-7.0-1.23","1320","[""videos/med_high_c13_white.mov""]","j","response","false"
"","","","","","html-keyboard-response","359","474276","0.0-7.0-0.24","null","<div style=""font-size:60px;"">+</div>","null","fixation",""
"","","","","","video-keyboard-response","360","476669","0.0-7.0-1.24","2391","[""videos/med_high_c6_white_mirror.mov""]","j","response","false"
"","","","","","html-keyboard-response","361","477170","0.0-7.0-0.25","null","<div style=""font-size:60px;"">+</div>","null","fixation",""
"","","","","","video-keyboard-response","362","479168","0.0-7.0-1.25","1997","[""videos/med_low_c9_white_mirror.mov""]","j","response","false"
"","","","","","html-keyboard-response","363","480171","0.0-7.0-0.26","null","<div style=""font-size:60px;"">+</div>","null","fixation",""
"","","","","","video-keyboard-response","364","481573","0.0-7.0-1.26","1401","[""videos/med_med_c1_white_mirror.mov""]","f","response","false"
"","","","","","html-keyboard-response","365","482325","0.0-7.0-0.27","null","<div style=""font-size:60px;"">+</div>","null","fixation",""
"","","","","","video-keyboard-response","366","483475","0.0-7.0-1.27","1149","[""videos/slow_med_c10_white.mov""]","j","response","false"
"","","","","","html-keyboard-response","367","484477","0.0-7.0-0.28","null","<div style=""font-size:60px;"">+</div>","null","fixation",""
"","","","","","video-keyboard-response","368","486434","0.0-7.0-1.28","1955","[""videos/fast_high_c11_white.mov""]","j","response","false"
"","","","","","html-keyboard-response","369","486935","0.0-7.0-0.29","null","<div style=""font-size:60px;"">+</div>","null","fixation",""
"","","","","","video-keyboard-response","370","488140","0.0-7.0-1.29","1204","[""videos/fast_med_c14_white.mov""]","f","response","false"
"","","","","","html-keyboard-response","371","488893","0.0-7.0-0.30","null","<div style=""font-size:60px;"">+</div>","null","fixation",""
"","","","","","video-keyboard-response","372","489679","0.0-7.0-1.30","786","[""videos/slow_high_c13_white.mov""]","j","response","false"
"","","","","","html-keyboard-response","373","490872","0.0-7.0-2.30-0.30","1192","<p>You can take a quick break now if you need it.</p>
      <p>Press the spacebar to continue.</p>"," ","",""
"","","","","","html-keyboard-response","374","491874","0.0-7.0-0.31","null","<div style=""font-size:60px;"">+</div>","null","fixation",""
"","","","","","video-keyboard-response","375","494167","0.0-7.0-1.31","2292","[""videos/fast_low_c17_white_mirror.mov""]","j","response","false"
"","","","","","html-keyboard-response","376","494919","0.0-7.0-0.32","null","<div style=""font-size:60px;"">+</div>","null","fixation",""
"","","","","","video-keyboard-response","377","496233","0.0-7.0-1.32","1312","[""videos/med_med_c14_white_mirror.mov""]","j","response","false"
"","","","","","html-keyboard-response","378","496734","0.0-7.0-0.33","null","<div style=""font-size:60px;"">+</div>","null","fixation",""
"","","","","","video-keyboard-response","379","497990","0.0-7.0-1.33","1254","[""videos/med_low_c10_white_mirror.mov""]","j","response","false"
"","","","","","html-keyboard-response","380","498993","0.0-7.0-0.34","null","<div style=""font-size:60px;"">+</div>","null","fixation",""
"","","","","","video-keyboard-response","381","499990","0.0-7.0-1.34","996","[""videos/slow_med_c7_white_mirror.mov""]","j","response","false"
"","","","","","html-keyboard-response","382","500743","0.0-7.0-0.35","null","<div style=""font-size:60px;"">+</div>","null","fixation",""
"","","","","","video-keyboard-response","383","501903","0.0-7.0-1.35","1159","[""videos/fast_high_c13_white.mov""]","j","response","false"
"","","","","","html-keyboard-response","384","502404","0.0-7.0-0.36","null","<div style=""font-size:60px;"">+</div>","null","fixation",""
"","","","","","video-keyboard-response","385","503581","0.0-7.0-1.36","1175","[""videos/slow_low_c4_white_mirror.mov""]","j","response","false"
"","","","","","html-keyboard-response","386","504332","0.0-7.0-0.37","null","<div style=""font-size:60px;"">+</div>","null","fixation",""
"","","","","","video-keyboard-response","387","506376","0.0-7.0-1.37","2043","[""videos/med_med_c4_white.mov""]","f","response","false"
"","","","","","html-keyboard-response","388","506878","0.0-7.0-0.38","null","<div style=""font-size:60px;"">+</div>","null","fixation",""
"","","","","","video-keyboard-response","389","508062","0.0-7.0-1.38","1183","[""videos/slow_med_c5_white_mirror.mov""]","j","response","false"
"","","","","","html-keyboard-response","390","508814","0.0-7.0-0.39","null","<div style=""font-size:60px;"">+</div>","null","fixation",""
"","","","","","video-keyboard-response","391","510422","0.0-7.0-1.39","1607","[""videos/slow_med_c4_white.mov""]","j","response","false"
"","","","","","html-keyboard-response","392","510924","0.0-7.0-0.40","null","<div style=""font-size:60px;"">+</div>","null","fixation",""
"","","","","","video-keyboard-response","393","512321","0.0-7.0-1.40","1396","[""videos/slow_low_c1_white.mov""]","f","response","false"
"","","","","","html-keyboard-response","394","513323","0.0-7.0-0.41","null","<div style=""font-size:60px;"">+</div>","null","fixation",""
"","","","","","video-keyboard-response","395","514681","0.0-7.0-1.41","1356","[""videos/fast_med_c13_white.mov""]","f","response","false"
"","","","","","html-keyboard-response","396","515432","0.0-7.0-0.42","null","<div style=""font-size:60px;"">+</div>","null","fixation",""
"","","","","","video-keyboard-response","397","516371","0.0-7.0-1.42","938","[""videos/slow_low_c12_white_mirror.mov""]","j","response","false"
"","","","","","html-keyboard-response","398","517372","0.0-7.0-0.43","null","<div style=""font-size:60px;"">+</div>","null","fixation",""
"","","","","","video-keyboard-response","399","520198","0.0-7.0-1.43","2825","[""videos/slow_low_c2_white.mov""]","f","response","false"
"","","","","","html-keyboard-response","400","520699","0.0-7.0-0.44","null","<div style=""font-size:60px;"">+</div>","null","fixation",""
"","","","","","video-keyboard-response","401","522038","0.0-7.0-1.44","1338","[""videos/fast_med_c6_white_mirror.mov""]","f","response","false"
"","","","","","html-keyboard-response","402","522790","0.0-7.0-0.45","null","<div style=""font-size:60px;"">+</div>","null","fixation",""
"","","","","","video-keyboard-response","403","524156","0.0-7.0-1.45","1364","[""videos/slow_med_c1_white_mirror.mov""]","f","response","false"
"","","","","","html-keyboard-response","404","525158","0.0-7.0-0.46","null","<div style=""font-size:60px;"">+</div>","null","fixation",""
"","","","","","video-keyboard-response","405","526278","0.0-7.0-1.46","1119","[""videos/med_med_c8_white.mov""]","j","response","false"
"","","","","","html-keyboard-response","406","527281","0.0-7.0-0.47","null","<div style=""font-size:60px;"">+</div>","null","fixation",""
"","","","","","video-keyboard-response","407","528367","0.0-7.0-1.47","1085","[""videos/slow_high_c4_white.mov""]","j","response","false"
"","","","","","html-keyboard-response","408","529120","0.0-7.0-0.48","null","<div style=""font-size:60px;"">+</div>","null","fixation",""
"","","","","","video-keyboard-response","409","530625","0.0-7.0-1.48","1504","[""videos/fast_med_c16_white_mirror.mov""]","j","response","false"
"","","","","","html-keyboard-response","410","531377","0.0-7.0-0.49","null","<div style=""font-size:60px;"">+</div>","null","fixation",""
"","","","","","video-keyboard-response","411","532698","0.0-7.0-1.49","1319","[""videos/slow_low_c7_white_mirror.mov""]","j","response","false"
"","","","","","html-keyboard-response","412","533449","0.0-7.0-0.50","null","<div style=""font-size:60px;"">+</div>","null","fixation",""
"","","","","","video-keyboard-response","413","535910","0.0-7.0-1.50","2460","[""videos/med_med_c6_white_mirror.mov""]","f","response","false"
"","","","","","html-keyboard-response","414","536750","0.0-7.0-2.50-0.50","840","<p>You can take a quick break now if you need it.</p>
      <p>Press the spacebar to continue.</p>"," ","",""
"","","","","","html-keyboard-response","415","537752","0.0-7.0-0.51","null","<div style=""font-size:60px;"">+</div>","null","fixation",""
"","","","","","video-keyboard-response","416","538986","0.0-7.0-1.51","1232","[""videos/med_high_c3_white_mirror.mov""]","f","response","false"
"","","","","","html-keyboard-response","417","539489","0.0-7.0-0.52","null","<div style=""font-size:60px;"">+</div>","null","fixation",""
"","","","","","video-keyboard-response","418","541488","0.0-7.0-1.52","1998","[""videos/med_high_c7_white.mov""]","f","response","false"
"","","","","","html-keyboard-response","419","542240","0.0-7.0-0.53","null","<div style=""font-size:60px;"">+</div>","null","fixation",""
"","","","","","video-keyboard-response","420","543478","0.0-7.0-1.53","1236","[""videos/med_low_c7_white_mirror.mov""]","j","response","false"
"","","","","","html-keyboard-response","421","544480","0.0-7.0-0.54","null","<div style=""font-size:60px;"">+</div>","null","fixation",""
"","","","","","video-keyboard-response","422","546753","0.0-7.0-1.54","2272","[""videos/med_low_c8_white.mov""]","j","response","false"
"","","","","","html-keyboard-response","423","547756","0.0-7.0-0.55","null","<div style=""font-size:60px;"">+</div>","null","fixation",""
"","","","","","video-keyboard-response","424","548626","0.0-7.0-1.55","869","[""videos/med_high_c10_white_mirror.mov""]","j","response","false"
"","","","","","html-keyboard-response","425","549127","0.0-7.0-0.56","null","<div style=""font-size:60px;"">+</div>","null","fixation",""
"","","","","","video-keyboard-response","426","549932","0.0-7.0-1.56","804","[""videos/fast_med_c17_white_mirror.mov""]","j","response","false"
"","","","","","html-keyboard-response","427","550434","0.0-7.0-0.57","null","<div style=""font-size:60px;"">+</div>","null","fixation",""
"","","","","","video-keyboard-response","428","552968","0.0-7.0-1.57","2532","[""videos/med_med_c9_white.mov""]","j","response","false"
"","","","","","html-keyboard-response","429","553970","0.0-7.0-0.58","null","<div style=""font-size:60px;"">+</div>","null","fixation",""
"","","","","","video-keyboard-response","430","555552","0.0-7.0-1.58","1581","[""videos/fast_med_c11_white.mov""]","f","response","false"
"","","","","","html-keyboard-response","431","556305","0.0-7.0-0.59","null","<div style=""font-size:60px;"">+</div>","null","fixation",""
"","","","","","video-keyboard-response","432","557677","0.0-7.0-1.59","1371","[""videos/med_low_c16_white.mov""]","j","response","false"
"","","","","","html-keyboard-response","433","558429","0.0-7.0-0.60","null","<div style=""font-size:60px;"">+</div>","null","fixation",""
"","","","","","video-keyboard-response","434","559695","0.0-7.0-1.60","1264","[""videos/fast_high_c12_white_mirror.mov""]","j","response","false"
"","","","","","html-keyboard-response","435","560697","0.0-7.0-0.61","null","<div style=""font-size:60px;"">+</div>","null","fixation",""
"","","","","","video-keyboard-response","436","564247","0.0-7.0-1.61","3548","[""videos/fast_high_c10_white_mirror.mov""]","j","response","false"
"","","","","","html-keyboard-response","437","564748","0.0-7.0-0.62","null","<div style=""font-size:60px;"">+</div>","null","fixation",""
"","","","","","video-keyboard-response","438","565607","0.0-7.0-1.62","857","[""videos/slow_high_c6_white_mirror.mov""]","j","response","false"
"","","","","","html-keyboard-response","439","566109","0.0-7.0-0.63","null","<div style=""font-size:60px;"">+</div>","null","fixation",""
"","","","","","video-keyboard-response","440","567285","0.0-7.0-1.63","1175","[""videos/fast_high_c8_white.mov""]","f","response","false"
"","","","","","html-keyboard-response","441","568037","0.0-7.0-0.64","null","<div style=""font-size:60px;"">+</div>","null","fixation",""
"","","","","","video-keyboard-response","442","569812","0.0-7.0-1.64","1774","[""videos/slow_high_c1_white_mirror.mov""]","f","response","false"
"","","","","","html-keyboard-response","443","571807","0.0-8.0","1995","<p>Thank you for completing the experiment.</p>"," ","",""
