"speed","friction","collider_position","trial_index","rt","color","mirror","response","participant_id","trial_type","correct_response"
"fast","high",10,193,12031,"purple","mirror","j","657e1a1580ea9","exp",1
"fast","high",10,132,1386,"tan",NA,"f","657e11e1938dd","exp",1
"fast","high",10,171,853,"pink",NA,"f","657e2967c5345","exp",1
"fast","high",10,28,2365,"white","mirror","f","657f6bfb51682","control1",1
"fast","high",10,142,2313,"teal","mirror","j","657e14c5630d9","exp",1
"fast","high",10,32,1818,"white",NA,"j","657e237cce8ca","control1",1
"fast","high",10,65,1455,"white",NA,"f","Inf","control1",1
"fast","high",10,429,1217,"tan",NA,"f","657e2dc92ea25","exp",1
"fast","high",10,173,1069,"pink","mirror","f","657e2dc92ea25","exp",1
"fast","high",10,337,2338,"purple","mirror","f","657e1f4edabb8","exp",1
"fast","high",10,495,813,"white","mirror","j","657e237cce8ca","control2",1
"fast","high",10,339,1613,"teal",NA,"f","Inf","exp",1
"fast","high",10,369,1289,"pink","mirror","f","657e237cce8ca","exp",1
"fast","high",10,364,1457,"white","mirror","f","657e11e1938dd","control2",1
"fast","high",10,446,1446,"white",NA,"f","Inf","control2",1
"fast","high",10,516,1531,"white","mirror","f","657e2dc92ea25","control2",1
"fast","high",10,61,2721,"white","mirror","f","657e2967c5345","control1",1
"fast","high",10,417,953,"tan","mirror","f","657e2967c5345","exp",1
"fast","high",10,553,2144,"white","mirror","j","657f6bfb51682","control2",1
"fast","high",10,96,3029,"white","mirror","f","657e1a1580ea9","control1",1
"fast","high",10,109,1437,"purple","mirror","f","657e11e1938dd","exp",1
"fast","high",10,440,1352,"white","mirror","f","657e2967c5345","control2",1
"fast","high",10,148,2853,"teal","mirror","f","657f6bfb51682","exp",1
"fast","high",10,406,2032,"pink",NA,"f","657e1a1580ea9","exp",1
"fast","high",10,367,1452,"tan","mirror","f","Inf","exp",1
"fast","high",10,532,2123,"white","mirror","j","657e1f4edabb8","control2",1
"fast","high",10,549,1591,"white",NA,"f","657e1a1580ea9","control2",1
"fast","high",10,30,1910,"white",NA,"f","657e2dc92ea25","control1",1
"fast","high",10,408,1645,"tan",NA,"f","657e237cce8ca","exp",1
"fast","high",10,214,2392,"tan",NA,"j","657e14c5630d9","exp",1
"fast","high",10,320,1804,"tan",NA,"j","657f6bfb51682","exp",1
"fast","high",10,120,1124,"white","mirror","f","657e1f4edabb8","control1",1
"fast","high",10,436,3548,"white","mirror","j","657e14c5630d9","control2",1
"fast","high",10,396,914,"tan",NA,"f","657e1f4edabb8","exp",1
"fast","high",11,390,1565,"teal","mirror","f","657e2967c5345","exp",1
"fast","high",11,396,1595,"tan",NA,"f","Inf","exp",1
"fast","high",11,459,1910,"white","mirror","f","657e1a1580ea9","control2",1
"fast","high",11,551,1014,"white",NA,"f","657e237cce8ca","control2",1
"fast","high",11,530,1134,"white","mirror","j","657e1f4edabb8","control2",1
"fast","high",11,406,1275,"teal","mirror","f","657e2dc92ea25","exp",1
"fast","high",11,32,1376,"white",NA,"f","657e2dc92ea25","control1",1
"fast","high",11,175,1498,"purple","mirror","f","657e11e1938dd","exp",1
"fast","high",11,419,1319,"pink",NA,"f","657e2dc92ea25","exp",1
"fast","high",11,118,4171,"white","mirror","f","657e237cce8ca","control1",1
"fast","high",11,436,2644,"white","mirror","j","657f6bfb51682","control2",1
"fast","high",11,255,2856,"pink","mirror","f","657e14c5630d9","exp",1
"fast","high",11,49,1369,"white",NA,"f","Inf","control1",1
"fast","high",11,357,1301,"teal","mirror","f","657e237cce8ca","exp",1
"fast","high",11,38,1668,"white","mirror","f","657e2967c5345","control1",1
"fast","high",11,401,1286,"white",NA,"f","657e11e1938dd","control2",1
"fast","high",11,287,1464,"tan",NA,"f","657e237cce8ca","exp",1
"fast","high",11,404,975,"purple",NA,"f","657e2967c5345","exp",1
"fast","high",11,423,1285,"teal","mirror","f","657e1f4edabb8","exp",1
"fast","high",11,502,1654,"white","mirror","f","Inf","control2",1
"fast","high",11,54,1411,"teal",NA,"f","657e11e1938dd","exp",1
"fast","high",11,156,1760,"pink","mirror","f","Inf","exp",1
"fast","high",11,189,1871,"tan",NA,"j","657e14c5630d9","exp",1
"fast","high",11,246,1122,"pink",NA,"f","657e1f4edabb8","exp",1
"fast","high",11,446,1285,"white",NA,"f","657e2dc92ea25","control2",1
"fast","high",11,108,1308,"white",NA,"f","657e1f4edabb8","control1",1
"fast","high",11,328,1680,"tan",NA,"f","657e1a1580ea9","exp",1
"fast","high",11,300,3055,"tan","mirror","j","657f6bfb51682","exp",1
"fast","high",11,289,1641,"purple","mirror","f","657e1a1580ea9","exp",1
"fast","high",11,481,1136,"white",NA,"f","657e2967c5345","control2",1
"fast","high",11,124,2274,"white","mirror","j","657f6bfb51682","control1",1
"fast","high",11,77,1503,"white","mirror","f","657e1a1580ea9","control1",1
"fast","high",11,368,1955,"white",NA,"j","657e14c5630d9","control2",1
"fast","high",11,142,1996,"pink",NA,"j","657f6bfb51682","exp",1
"fast","high",12,520,2599,"white",NA,"j","657e1a1580ea9","control2",0
"fast","high",12,244,4344,"pink",NA,"j","657e14c5630d9","exp",0
"fast","high",12,479,1296,"white",NA,"f","657e2dc92ea25","control2",0
"fast","high",12,457,1598,"white","mirror","f","Inf","control2",0
"fast","high",12,199,2275,"purple","mirror","f","657e2dc92ea25","exp",0
"fast","high",12,248,2840,"purple","mirror","f","657f6bfb51682","exp",0
"fast","high",12,133,2923,"white",NA,"f","657e1a1580ea9","control1",0
"fast","high",12,287,4630,"teal",NA,"j","657e1f4edabb8","exp",0
"fast","high",12,427,1528,"teal",NA,"f","Inf","exp",0
"fast","high",12,271,2169,"purple","mirror","f","Inf","exp",0
"fast","high",12,436,1333,"white","mirror","f","657e11e1938dd","control2",0
"fast","high",12,74,965,"purple","mirror","j","657e14c5630d9","exp",0
"fast","high",12,212,6015,"purple",NA,"f","657e1a1580ea9","exp",0
"fast","high",12,205,1163,"pink",NA,"f","657e2967c5345","exp",0
"fast","high",12,78,1802,"pink","mirror","f","657e11e1938dd","exp",0
"fast","high",12,440,1688,"white",NA,"j","657e1f4edabb8","control2",0
"fast","high",12,251,1614,"teal","mirror","j","657e1a1580ea9","exp",0
"fast","high",12,55,1591,"white","mirror","f","657e2dc92ea25","control1",0
"fast","high",12,175,1633,"pink",NA,"j","657e237cce8ca","exp",0
"fast","high",12,306,2255,"teal",NA,"f","657f6bfb51682","exp",0
"fast","high",12,512,1176,"white",NA,"j","657e237cce8ca","control2",0
"fast","high",12,18,1643,"white",NA,"f","Inf","control1",0
"fast","high",12,322,1323,"teal",NA,"f","657e2dc92ea25","exp",0
"fast","high",12,298,1422,"tan","mirror","f","657e1f4edabb8","exp",0
"fast","high",12,434,1264,"white","mirror","j","657e14c5630d9","control2",0
"fast","high",12,36,4243,"white","mirror","j","657e2967c5345","control1",0
"fast","high",12,16,1298,"white",NA,"j","657e1f4edabb8","control1",0
"fast","high",12,386,1251,"teal","mirror","f","657e2967c5345","exp",0
"fast","high",12,22,1429,"white",NA,"j","657e237cce8ca","control1",0
"fast","high",12,448,1494,"white",NA,"j","657f6bfb51682","control2",0
"fast","high",12,43,1527,"teal",NA,"f","657e11e1938dd","exp",0
"fast","high",12,498,986,"white",NA,"f","657e2967c5345","control2",0
"fast","high",12,318,1907,"tan","mirror","j","657e237cce8ca","exp",0
"fast","high",12,26,2917,"white",NA,"j","657f6bfb51682","control1",0
"fast","high",13,103,1595,"pink","mirror","f","657e11e1938dd","exp",0
"fast","high",13,432,1510,"white",NA,"j","657e11e1938dd","control2",0
"fast","high",13,277,1515,"teal",NA,"j","657e237cce8ca","exp",0
"fast","high",13,79,2225,"white",NA,"j","657f6bfb51682","control1",0
"fast","high",13,442,4816,"white","mirror","f","657e2dc92ea25","control2",0
"fast","high",13,34,1282,"white","mirror","f","657e1f4edabb8","control1",0
"fast","high",13,345,1521,"teal",NA,"j","657e2967c5345","exp",0
"fast","high",13,207,1658,"pink",NA,"j","657e14c5630d9","exp",0
"fast","high",13,415,1721,"pink","mirror","j","657f6bfb51682","exp",0
"fast","high",13,563,1129,"white","mirror","j","657e1f4edabb8","control2",0
"fast","high",13,144,1800,"pink","mirror","j","657e1a1580ea9","exp",0
"fast","high",13,438,1626,"white",NA,"j","Inf","control2",0
"fast","high",13,116,1715,"white",NA,"f","Inf","control1",0
"fast","high",13,257,1923,"pink","mirror","f","657e2967c5345","exp",0
"fast","high",13,133,1179,"white","mirror","j","657e237cce8ca","control1",0
"fast","high",13,383,1159,"white",NA,"j","657e14c5630d9","control2",0
"fast","high",13,36,2447,"white",NA,"j","657e1a1580ea9","control1",0
"fast","high",13,138,1437,"purple","mirror","j","657e1f4edabb8","exp",0
"fast","high",13,539,2946,"white","mirror","j","657f6bfb51682","control2",0
"fast","high",13,454,1511,"white","mirror","j","657e2967c5345","control2",0
"fast","high",13,240,1597,"pink","mirror","f","Inf","exp",0
"fast","high",13,365,1473,"teal",NA,"j","657e1f4edabb8","exp",0
"fast","high",13,384,3410,"tan","mirror","j","657e2dc92ea25","exp",0
"fast","high",13,220,1474,"teal","mirror","j","657e14c5630d9","exp",0
"fast","high",13,337,1388,"tan",NA,"j","Inf","exp",0
"fast","high",13,238,2308,"teal",NA,"f","657f6bfb51682","exp",0
"fast","high",13,142,1830,"teal",NA,"f","657e11e1938dd","exp",0
"fast","high",13,436,1447,"white","mirror","j","657e237cce8ca","control2",0
"fast","high",13,57,1885,"white",NA,"f","657e2967c5345","control1",0
"fast","high",13,394,1410,"tan","mirror","f","657e237cce8ca","exp",0
"fast","high",13,207,1606,"teal",NA,"f","657e2dc92ea25","exp",0
"fast","high",13,20,927,"white",NA,"f","657e2dc92ea25","control1",0
"fast","high",13,461,3113,"white",NA,"j","657e1a1580ea9","control2",0
"fast","high",13,425,4224,"tan",NA,"f","657e1a1580ea9","exp",0
"fast","high",15,246,1120,"pink",NA,"j","657e11e1938dd","exp",0
"fast","high",15,421,1312,"teal","mirror","f","657e2dc92ea25","exp",0
"fast","high",15,75,1463,"white",NA,"j","657e1f4edabb8","control1",0
"fast","high",15,471,1027,"white",NA,"j","657e237cce8ca","control2",0
"fast","high",15,20,1942,"white",NA,"j","657f6bfb51682","control1",0
"fast","high",15,382,1933,"tan","mirror","j","657e1f4edabb8","exp",0
"fast","high",15,179,1079,"pink",NA,"f","657e2dc92ea25","exp",0
"fast","high",15,191,5193,"pink",NA,"f","657e237cce8ca","exp",0
"fast","high",15,452,1871,"white","mirror","j","657e2967c5345","control2",0
"fast","high",15,493,1487,"white",NA,"j","657f6bfb51682","control2",0
"fast","high",15,52,1089,"teal",NA,"j","657e14c5630d9","exp",0
"fast","high",15,510,1520,"white",NA,"f","Inf","control2",0
"fast","high",15,158,3431,"tan","mirror","j","657e1a1580ea9","exp",0
"fast","high",15,378,1347,"purple",NA,"j","657e1a1580ea9","exp",0
"fast","high",15,338,1556,"white",NA,"j","657e11e1938dd","control2",0
"fast","high",15,150,1119,"pink",NA,"j","657e1f4edabb8","exp",0
"fast","high",15,129,1618,"white","mirror","j","657e2dc92ea25","control1",0
"fast","high",15,238,1195,"pink","mirror","j","657e2967c5345","exp",0
"fast","high",15,30,1343,"white","mirror","f","Inf","control1",0
"fast","high",15,348,1365,"white",NA,"j","657e14c5630d9","control2",0
"fast","high",15,38,1585,"white",NA,"j","657e237cce8ca","control1",0
"fast","high",15,359,1686,"purple","mirror","f","Inf","exp",0
"fast","high",15,479,1471,"white",NA,"j","657e1f4edabb8","control2",0
"fast","high",15,212,2341,"tan",NA,"j","657f6bfb51682","exp",0
"fast","high",15,425,1172,"purple",NA,"f","657e2967c5345","exp",0
"fast","high",15,271,1625,"purple","mirror","j","657e11e1938dd","exp",0
"fast","high",15,127,1268,"white",NA,"f","657e2967c5345","control1",0
"fast","high",15,530,3503,"white","mirror","j","657e1a1580ea9","control2",0
"fast","high",15,294,1600,"tan",NA,"f","Inf","exp",0
"fast","high",15,148,939,"purple","mirror","j","657e14c5630d9","exp",0
"fast","high",15,400,4814,"teal","mirror","f","657f6bfb51682","exp",0
"fast","high",15,86,4876,"white",NA,"j","657e1a1580ea9","control1",0
"fast","high",15,434,4163,"white",NA,"f","657e2dc92ea25","control2",0
"fast","high",15,257,1108,"teal","mirror","j","657e237cce8ca","exp",0
"fast","high",17,158,1493,"pink","mirror","j","657e11e1938dd","exp",0
"fast","high",17,287,2577,"purple","mirror","f","657e2967c5345","exp",0
"fast","high",17,42,1516,"white","mirror","j","657e1f4edabb8","control1",0
"fast","high",17,378,2466,"tan",NA,"j","657f6bfb51682","exp",0
"fast","high",17,454,1548,"white",NA,"f","Inf","control2",0
"fast","high",17,96,1944,"white","mirror","f","Inf","control1",0
"fast","high",17,400,1335,"tan",NA,"f","657e2967c5345","exp",0
"fast","high",17,240,2907,"teal","mirror","j","657f6bfb51682","exp",0
"fast","high",17,448,1451,"white","mirror","j","657e1f4edabb8","control2",0
"fast","high",17,283,1478,"purple",NA,"j","657e1a1580ea9","exp",0
"fast","high",17,306,1598,"tan","mirror","j","657e2dc92ea25","exp",0
"fast","high",17,335,1481,"pink",NA,"j","Inf","exp",0
"fast","high",17,438,1381,"white",NA,"j","657e1a1580ea9","control2",0
"fast","high",17,259,1362,"tan","mirror","j","657e1a1580ea9","exp",0
"fast","high",17,304,2008,"teal",NA,"f","657e237cce8ca","exp",0
"fast","high",17,79,1659,"white","mirror","j","657e1a1580ea9","control1",0
"fast","high",17,240,1679,"purple",NA,"j","657e2dc92ea25","exp",0
"fast","high",17,344,1797,"white","mirror","j","657e14c5630d9","control2",0
"fast","high",17,534,1530,"white","mirror","f","657e237cce8ca","control2",0
"fast","high",17,465,1506,"white","mirror","j","657f6bfb51682","control2",0
"fast","high",17,514,771,"white","mirror","f","657e2967c5345","control2",0
"fast","high",17,398,1138,"pink","mirror","j","657e1f4edabb8","exp",0
"fast","high",17,6,1761,"white",NA,"j","657e2967c5345","control1",0
"fast","high",17,60,891,"pink",NA,"j","657e14c5630d9","exp",0
"fast","high",17,120,6110,"white",NA,"j","657e2dc92ea25","control1",0
"fast","high",17,53,1587,"white","mirror","j","657f6bfb51682","control1",0
"fast","high",17,347,1570,"tan","mirror","j","657e237cce8ca","exp",0
"fast","high",17,117,1058,"tan","mirror","j","657e14c5630d9","exp",0
"fast","high",17,346,1563,"white","mirror","j","657e11e1938dd","control2",0
"fast","high",17,127,1444,"white",NA,"j","657e237cce8ca","control1",0
"fast","high",17,324,1747,"purple","mirror","f","Inf","exp",0
"fast","high",17,539,1346,"white","mirror","f","657e2dc92ea25","control2",0
"fast","high",17,273,1300,"purple",NA,"j","657e1f4edabb8","exp",0
"fast","high",17,19,1328,"purple",NA,"j","657e11e1938dd","exp",0
"fast","high",4,158,1248,"pink","mirror","f","657e1f4edabb8","exp",1
"fast","high",4,121,1326,"purple",NA,"f","657e11e1938dd","exp",1
"fast","high",4,185,2729,"purple",NA,"f","657f6bfb51682","exp",1
"fast","high",4,81,1183,"white",NA,"j","657e1f4edabb8","control1",1
"fast","high",4,310,1533,"purple",NA,"f","657e1f4edabb8","exp",1
"fast","high",4,42,1422,"white","mirror","f","657e1a1580ea9","control1",1
"fast","high",4,129,1100,"white",NA,"f","657e2967c5345","control1",1
"fast","high",4,112,1737,"white",NA,"f","657f6bfb51682","control1",1
"fast","high",4,419,1493,"purple",NA,"f","Inf","exp",1
"fast","high",4,135,1350,"white","mirror","f","657e237cce8ca","control1",1
"fast","high",4,138,1447,"pink",NA,"f","657e2967c5345","exp",1
"fast","high",4,166,1328,"purple","mirror","f","657e2dc92ea25","exp",1
"fast","high",4,319,1501,"white","mirror","f","657e14c5630d9","control2",1
"fast","high",4,402,1381,"pink",NA,"f","657e237cce8ca","exp",1
"fast","high",4,427,1519,"tan","mirror","f","657e2967c5345","exp",1
"fast","high",4,357,2462,"tan","mirror","f","657f6bfb51682","exp",1
"fast","high",4,335,1301,"purple","mirror","f","657e237cce8ca","exp",1
"fast","high",4,465,1603,"white","mirror","f","657e237cce8ca","control2",1
"fast","high",4,224,1358,"pink","mirror","f","657e11e1938dd","exp",1
"fast","high",4,238,1504,"teal","mirror","f","Inf","exp",1
"fast","high",4,487,1588,"white",NA,"f","657e2dc92ea25","control2",1
"fast","high",4,491,1692,"white","mirror","f","Inf","control2",1
"fast","high",4,160,1497,"tan",NA,"f","657e1a1580ea9","exp",1
"fast","high",4,553,1096,"white",NA,"f","657e2967c5345","control2",1
"fast","high",4,385,1164,"white",NA,"f","657e11e1938dd","control2",1
"fast","high",4,410,1613,"teal","mirror","f","657e1a1580ea9","exp",1
"fast","high",4,526,2386,"white","mirror","f","657e1a1580ea9","control2",1
"fast","high",4,195,1362,"pink",NA,"f","657e2dc92ea25","exp",1
"fast","high",4,195,1384,"purple","mirror","f","657e14c5630d9","exp",1
"fast","high",4,489,1836,"white",NA,"f","657f6bfb51682","control2",1
"fast","high",4,68,1459,"pink",NA,"f","657e14c5630d9","exp",1
"fast","high",4,116,1460,"white","mirror","f","657e2dc92ea25","control1",1
"fast","high",4,463,1155,"white",NA,"f","657e1f4edabb8","control2",1
"fast","high",4,133,1318,"white","mirror","f","Inf","control1",1
"fast","high",8,259,4000,"pink","mirror","j","657f6bfb51682","exp",1
"fast","high",8,500,1539,"white",NA,"f","657f6bfb51682","control2",1
"fast","high",8,477,1006,"white",NA,"f","657e2967c5345","control2",1
"fast","high",8,34,1781,"white","mirror","f","657f6bfb51682","control1",1
"fast","high",8,232,1341,"tan","mirror","f","657e237cce8ca","exp",1
"fast","high",8,171,1170,"teal",NA,"f","657e2dc92ea25","exp",1
"fast","high",8,42,1579,"white","mirror","f","657e237cce8ca","control1",1
"fast","high",8,129,1211,"white","mirror","f","Inf","control1",1
"fast","high",8,487,1309,"white","mirror","f","657e1a1580ea9","control2",1
"fast","high",8,164,1214,"pink",NA,"f","657e2967c5345","exp",1
"fast","high",8,73,1404,"white",NA,"f","657e1a1580ea9","control1",1
"fast","high",8,162,1436,"teal","mirror","f","657e11e1938dd","exp",1
"fast","high",8,409,1249,"white","mirror","f","657e11e1938dd","control2",1
"fast","high",8,279,1473,"tan","mirror","f","Inf","exp",1
"fast","high",8,169,2709,"tan",NA,"f","657f6bfb51682","exp",1
"fast","high",8,539,1074,"white",NA,"f","657e1f4edabb8","control2",1
"fast","high",8,222,1007,"tan","mirror","f","657e1f4edabb8","exp",1
"fast","high",8,481,1331,"white","mirror","f","657e2dc92ea25","control2",1
"fast","high",8,289,1394,"purple","mirror","f","657e14c5630d9","exp",1
"fast","high",8,314,8379,"teal",NA,"f","657e1f4edabb8","exp",1
"fast","high",8,396,1314,"purple",NA,"f","657e1a1580ea9","exp",1
"fast","high",8,113,1439,"tan",NA,"f","657e11e1938dd","exp",1
"fast","high",8,440,1175,"white",NA,"f","657e14c5630d9","control2",1
"fast","high",8,259,1068,"purple","mirror","f","657e2967c5345","exp",1
"fast","high",8,500,716,"white",NA,"f","657e237cce8ca","control2",1
"fast","high",8,110,1672,"white","mirror","f","657e2dc92ea25","control1",1
"fast","high",8,91,1923,"teal",NA,"f","657e14c5630d9","exp",1
"fast","high",8,150,1816,"purple",NA,"f","657e237cce8ca","exp",1
"fast","high",8,32,2644,"white","mirror","f","657e2967c5345","control1",1
"fast","high",8,324,1273,"pink","mirror","f","657e2dc92ea25","exp",1
"fast","high",8,175,1829,"pink","mirror","f","657e1a1580ea9","exp",1
"fast","high",8,516,1762,"white","mirror","f","Inf","control2",1
"fast","high",8,22,1248,"white","mirror","f","657e1f4edabb8","control1",1
"fast","high",8,267,1491,"teal",NA,"f","Inf","exp",1
"fast","low",12,281,3461,"pink","mirror","f","657f6bfb51682","exp",1
"fast","low",12,218,1289,"pink","mirror","f","657e2967c5345","exp",1
"fast","low",12,69,2740,"white",NA,"f","657e1f4edabb8","control1",1
"fast","low",12,541,1171,"white",NA,"f","657e2967c5345","control2",1
"fast","low",12,169,1736,"purple",NA,"f","Inf","exp",1
"fast","low",12,16,1442,"white",NA,"f","Inf","control1",1
"fast","low",12,45,3140,"white",NA,"j","657e2967c5345","control1",1
"fast","low",12,34,1325,"white","mirror","f","657e1a1580ea9","control1",1
"fast","low",12,275,2145,"tan",NA,"f","657f6bfb51682","exp",1
"fast","low",12,308,2114,"purple","mirror","f","657e11e1938dd","exp",1
"fast","low",12,4,1564,"white","mirror","f","657e11e1938dd","control1",1
"fast","low",12,75,1585,"white","mirror","f","657e237cce8ca","control1",1
"fast","low",12,310,1521,"tan","mirror","f","Inf","exp",1
"fast","low",12,463,1257,"white","mirror","f","657e2dc92ea25","control2",1
"fast","low",12,555,1515,"white","mirror","f","Inf","control2",1
"fast","low",12,483,1282,"white",NA,"f","657e237cce8ca","control2",1
"fast","low",12,315,2980,"white","mirror","j","657e14c5630d9","control2",1
"fast","low",12,555,3143,"white","mirror","f","657e1a1580ea9","control2",1
"fast","low",12,10,1761,"white",NA,"j","657f6bfb51682","control1",1
"fast","low",12,263,1502,"tan",NA,"f","657e11e1938dd","exp",1
"fast","low",12,285,1327,"pink","mirror","f","657e2dc92ea25","exp",1
"fast","low",12,316,1439,"teal","mirror","f","657e1f4edabb8","exp",1
"fast","low",12,450,1276,"white","mirror","f","657e1f4edabb8","control2",1
"fast","low",12,171,2167,"tan","mirror","f","657e1a1580ea9","exp",1
"fast","low",12,310,1515,"teal",NA,"f","657e237cce8ca","exp",1
"fast","low",12,10,1591,"white","mirror","f","657e2dc92ea25","control1",1
"fast","low",12,457,2547,"white","mirror","j","657f6bfb51682","control2",1
"fast","low",12,58,1315,"purple","mirror","j","657e14c5630d9","exp",1
"fast","low",12,279,2616,"purple",NA,"f","657e1a1580ea9","exp",1
"fast","low",12,312,1047,"tan",NA,"f","657e2dc92ea25","exp",1
"fast","low",12,337,1220,"purple","mirror","f","657e237cce8ca","exp",1
"fast","low",12,316,1173,"teal",NA,"f","657e2967c5345","exp",1
"fast","low",12,128,1382,"tan",NA,"j","657e14c5630d9","exp",1
"fast","low",12,391,1431,"white","mirror","f","657e11e1938dd","control2",1
"fast","low",12,230,1172,"tan",NA,"f","657e1f4edabb8","exp",1
"fast","low",14,289,3174,"pink","mirror","f","657f6bfb51682","exp",1
"fast","low",14,255,1829,"teal",NA,"j","657e11e1938dd","exp",1
"fast","low",14,75,3921,"white",NA,"f","657e1a1580ea9","control1",1
"fast","low",14,306,2769,"pink","mirror","f","657e1f4edabb8","exp",1
"fast","low",14,112,1637,"white",NA,"f","657e2dc92ea25","control1",1
"fast","low",14,150,1304,"tan","mirror","f","657e2dc92ea25","exp",1
"fast","low",14,251,5125,"pink",NA,"f","657e2967c5345","exp",1
"fast","low",14,259,1815,"tan","mirror","f","657e11e1938dd","exp",1
"fast","low",14,329,2472,"white",NA,"j","657e14c5630d9","control2",1
"fast","low",14,197,2805,"tan",NA,"f","657e237cce8ca","exp",1
"fast","low",14,510,2381,"white","mirror","f","657f6bfb51682","control2",1
"fast","low",14,110,1534,"white","mirror","f","Inf","control1",1
"fast","low",14,549,1347,"white","mirror","f","657e1f4edabb8","control2",1
"fast","low",14,205,2057,"pink",NA,"f","657e1a1580ea9","exp",1
"fast","low",14,508,1993,"white","mirror","f","657e1a1580ea9","control2",1
"fast","low",14,152,3103,"teal","mirror","j","657e1a1580ea9","exp",1
"fast","low",14,160,1315,"purple","mirror","f","657e2967c5345","exp",1
"fast","low",14,150,1393,"pink","mirror","j","657e14c5630d9","exp",1
"fast","low",14,127,1411,"white","mirror","f","657e1f4edabb8","control1",1
"fast","low",14,423,1313,"pink",NA,"f","657e2dc92ea25","exp",1
"fast","low",14,438,1197,"white",NA,"f","657e2dc92ea25","control2",1
"fast","low",14,339,1643,"purple",NA,"f","657e1f4edabb8","exp",1
"fast","low",14,193,1527,"teal",NA,"f","Inf","exp",1
"fast","low",14,96,2783,"white",NA,"j","657f6bfb51682","control1",1
"fast","low",14,389,1551,"white","mirror","f","657e11e1938dd","control2",1
"fast","low",14,473,1094,"white","mirror","f","657e237cce8ca","control2",1
"fast","low",14,355,2802,"teal",NA,"j","657f6bfb51682","exp",1
"fast","low",14,47,2571,"white","mirror","f","657e237cce8ca","control1",1
"fast","low",14,8,1723,"white","mirror","f","657e2967c5345","control1",1
"fast","low",14,187,1448,"purple","mirror","f","Inf","exp",1
"fast","low",14,212,2755,"teal",NA,"j","657e14c5630d9","exp",1
"fast","low",14,343,1478,"purple","mirror","f","657e237cce8ca","exp",1
"fast","low",14,506,934,"white","mirror","f","657e2967c5345","control2",1
"fast","low",14,459,1579,"white","mirror","f","Inf","control2",1
"fast","low",15,65,1815,"white","mirror","f","657e1a1580ea9","control1",1
"fast","low",15,547,1716,"white","mirror","f","Inf","control2",1
"fast","low",15,240,1767,"teal","mirror","j","657e237cce8ca","exp",1
"fast","low",15,220,2168,"tan","mirror","j","657e1f4edabb8","exp",1
"fast","low",15,234,1255,"tan","mirror","j","657e14c5630d9","exp",1
"fast","low",15,369,3000,"purple",NA,"f","657e1a1580ea9","exp",1
"fast","low",15,121,1193,"teal",NA,"j","657e14c5630d9","exp",1
"fast","low",15,6,1477,"white","mirror","j","657e14c5630d9","control1",1
"fast","low",15,471,1305,"white","mirror","f","657e2967c5345","control2",1
"fast","low",15,100,2333,"white","mirror","j","657f6bfb51682","control1",1
"fast","low",15,491,1518,"white",NA,"f","657e1f4edabb8","control2",1
"fast","low",15,326,1582,"teal",NA,"f","657e1f4edabb8","exp",1
"fast","low",15,26,1440,"white","mirror","f","Inf","control1",1
"fast","low",15,253,1389,"teal","mirror","j","657e1a1580ea9","exp",1
"fast","low",15,563,2717,"white",NA,"j","657e1a1580ea9","control2",1
"fast","low",15,29,1369,"pink","mirror","f","657e11e1938dd","exp",1
"fast","low",15,40,1426,"white","mirror","f","657e1f4edabb8","control1",1
"fast","low",15,12,1245,"white","mirror","f","657e2967c5345","control1",1
"fast","low",15,335,2467,"tan","mirror","j","657f6bfb51682","exp",1
"fast","low",15,327,2510,"white",NA,"j","657e14c5630d9","control2",1
"fast","low",15,228,1223,"teal","mirror","f","657e2967c5345","exp",1
"fast","low",15,203,1486,"purple",NA,"f","Inf","exp",1
"fast","low",15,351,1450,"pink","mirror","f","Inf","exp",1
"fast","low",15,35,1997,"tan",NA,"j","657e11e1938dd","exp",1
"fast","low",15,459,1334,"white",NA,"f","657e2dc92ea25","control2",1
"fast","low",15,477,1177,"white","mirror","j","657e237cce8ca","control2",1
"fast","low",15,152,1718,"tan","mirror","f","657e2dc92ea25","exp",1
"fast","low",15,444,2396,"white",NA,"j","657f6bfb51682","control2",1
"fast","low",15,365,1519,"pink",NA,"f","657e2dc92ea25","exp",1
"fast","low",15,265,1414,"purple",NA,"f","657e2967c5345","exp",1
"fast","low",15,138,2368,"pink",NA,"j","657e237cce8ca","exp",1
"fast","low",15,120,2860,"white",NA,"j","657e237cce8ca","control1",1
"fast","low",15,399,1522,"white",NA,"f","657e11e1938dd","control2",1
"fast","low",15,69,1787,"white","mirror","f","657e2dc92ea25","control1",1
"fast","low",15,242,3588,"pink",NA,"f","657f6bfb51682","exp",1
"fast","low",16,236,1483,"tan",NA,"f","Inf","exp",0
"fast","low",16,543,1474,"white",NA,"j","657e1f4edabb8","control2",0
"fast","low",16,330,3985,"purple","mirror","j","657f6bfb51682","exp",0
"fast","low",16,82,1960,"teal",NA,"j","657e11e1938dd","exp",0
"fast","low",16,185,2339,"pink",NA,"j","657e237cce8ca","exp",0
"fast","low",16,328,3354,"teal","mirror","j","657f6bfb51682","exp",0
"fast","low",16,444,1516,"white","mirror","f","657e237cce8ca","control2",0
"fast","low",16,144,2335,"tan",NA,"j","657f6bfb51682","exp",0
"fast","low",16,238,2395,"tan","mirror","j","657e14c5630d9","exp",0
"fast","low",16,40,1736,"white",NA,"j","657e237cce8ca","control1",0
"fast","low",16,350,1482,"white","mirror","j","657e14c5630d9","control2",0
"fast","low",16,133,3711,"white",NA,"f","657e2967c5345","control1",0
"fast","low",16,320,2968,"teal",NA,"j","657e237cce8ca","exp",0
"fast","low",16,199,1375,"pink",NA,"f","657e1f4edabb8","exp",0
"fast","low",16,83,2897,"white",NA,"j","657e1a1580ea9","control1",0
"fast","low",16,150,3651,"pink",NA,"j","657e1a1580ea9","exp",0
"fast","low",16,18,5234,"white","mirror","j","657f6bfb51682","control1",0
"fast","low",16,253,3640,"teal",NA,"f","657e2967c5345","exp",0
"fast","low",16,95,2073,"teal",NA,"j","657e14c5630d9","exp",0
"fast","low",16,369,1361,"tan",NA,"f","657e2dc92ea25","exp",0
"fast","low",16,175,1286,"purple","mirror","f","657e2967c5345","exp",0
"fast","low",16,388,1477,"pink","mirror","f","Inf","exp",0
"fast","low",16,304,1747,"teal",NA,"f","Inf","exp",0
"fast","low",16,187,1771,"purple","mirror","j","657e11e1938dd","exp",0
"fast","low",16,392,1751,"tan","mirror","j","657e237cce8ca","exp",0
"fast","low",16,181,1879,"purple","mirror","f","Inf","exp",0
"fast","low",16,337,4106,"tan","mirror","f","657e1a1580ea9","exp",0
"fast","low",16,257,2746,"teal","mirror","j","657e1a1580ea9","exp",0
"fast","low",16,253,5338,"pink",NA,"j","657f6bfb51682","exp",0
"fast","low",16,32,1576,"white","mirror","f","657e1f4edabb8","control1",0
"fast","low",16,491,1374,"white","mirror","f","657e2dc92ea25","control2",0
"fast","low",16,300,1735,"tan",NA,"f","657e11e1938dd","exp",0
"fast","low",16,214,1062,"purple","mirror","f","657e1f4edabb8","exp",0
"fast","low",16,148,2698,"tan","mirror","f","657e2967c5345","exp",0
"fast","low",16,314,1890,"purple",NA,"f","657e1a1580ea9","exp",0
"fast","low",16,179,1097,"purple",NA,"j","657e14c5630d9","exp",0
"fast","low",16,351,1368,"pink",NA,"f","657e2967c5345","exp",0
"fast","low",16,267,1416,"teal","mirror","f","657e1f4edabb8","exp",0
"fast","low",16,543,1825,"white",NA,"f","Inf","control2",0
"fast","low",16,185,1492,"tan",NA,"f","657e1f4edabb8","exp",0
"fast","low",16,175,1093,"pink","mirror","j","657e14c5630d9","exp",0
"fast","low",16,259,1677,"purple","mirror","j","657e237cce8ca","exp",0
"fast","low",16,359,1154,"purple","mirror","f","657e2dc92ea25","exp",0
"fast","low",16,4,1979,"white",NA,"f","657e2dc92ea25","control1",0
"fast","low",16,212,2220,"teal",NA,"j","657e2dc92ea25","exp",0
"fast","low",16,483,3988,"white","mirror","j","657f6bfb51682","control2",0
"fast","low",16,302,1494,"pink","mirror","j","657e11e1938dd","exp",0
"fast","low",16,528,2515,"white","mirror","j","657e2967c5345","control2",0
"fast","low",16,131,1655,"white","mirror","f","Inf","control1",0
"fast","low",16,452,7427,"white","mirror","f","657e1a1580ea9","control2",0
"fast","low",16,366,1693,"white","mirror","f","657e11e1938dd","control2",0
"fast","low",16,287,1491,"pink","mirror","f","657e2dc92ea25","exp",0
"fast","low",17,450,11258,"white",NA,"f","657e1a1580ea9","control2",0
"fast","low",17,166,1462,"purple","mirror","f","Inf","exp",0
"fast","low",17,189,1543,"teal",NA,"f","657e1f4edabb8","exp",0
"fast","low",17,444,1833,"white",NA,"j","657e2967c5345","control2",0
"fast","low",17,90,6806,"white",NA,"j","657f6bfb51682","control1",0
"fast","low",17,512,1312,"white","mirror","f","657e2dc92ea25","control2",0
"fast","low",17,80,1874,"tan","mirror","j","657e11e1938dd","exp",0
"fast","low",17,281,1308,"pink",NA,"j","657e237cce8ca","exp",0
"fast","low",17,224,1405,"teal",NA,"f","657e2967c5345","exp",0
"fast","low",17,251,970,"pink","mirror","j","657e14c5630d9","exp",0
"fast","low",17,448,1407,"white",NA,"j","657e237cce8ca","control2",0
"fast","low",17,396,1841,"purple",NA,"f","657e2dc92ea25","exp",0
"fast","low",17,199,2047,"tan","mirror","j","657e237cce8ca","exp",0
"fast","low",17,6,1852,"white","mirror","j","657e237cce8ca","control1",0
"fast","low",17,345,2964,"teal","mirror","j","657f6bfb51682","exp",0
"fast","low",17,528,1878,"white",NA,"j","657f6bfb51682","control2",0
"fast","low",17,193,2958,"purple","mirror","j","657f6bfb51682","exp",0
"fast","low",17,277,4341,"tan",NA,"j","657f6bfb51682","exp",0
"fast","low",17,37,1484,"purple",NA,"f","657e11e1938dd","exp",0
"fast","low",17,324,2508,"pink","mirror","f","657e1a1580ea9","exp",0
"fast","low",17,146,1651,"teal",NA,"f","Inf","exp",0
"fast","low",17,380,1589,"purple","mirror","j","657e2967c5345","exp",0
"fast","low",17,24,1531,"white",NA,"f","657e2967c5345","control1",0
"fast","low",17,429,1532,"purple","mirror","f","657e1f4edabb8","exp",0
"fast","low",17,396,1189,"teal","mirror","j","657e237cce8ca","exp",0
"fast","low",17,347,1612,"pink","mirror","f","Inf","exp",0
"fast","low",17,371,3488,"teal","mirror","j","657e2dc92ea25","exp",0
"fast","low",17,375,2292,"white","mirror","j","657e14c5630d9","control2",0
"fast","low",17,195,1923,"pink",NA,"f","657e2967c5345","exp",0
"fast","low",17,483,1570,"white",NA,"f","657e1f4edabb8","control2",0
"fast","low",17,18,1876,"white",NA,"f","657e1a1580ea9","control1",0
"fast","low",17,244,1590,"pink","mirror","f","657e2dc92ea25","exp",0
"fast","low",17,160,2002,"teal","mirror","j","657e11e1938dd","exp",0
"fast","low",17,240,2681,"purple",NA,"f","657e1a1580ea9","exp",0
"fast","low",17,381,1562,"white",NA,"f","657e11e1938dd","control2",0
"fast","low",17,382,5787,"tan",NA,"f","657e1a1580ea9","exp",0
"fast","low",17,244,1445,"purple",NA,"j","657e237cce8ca","exp",0
"fast","low",17,369,1786,"tan",NA,"j","Inf","exp",0
"fast","low",17,48,1216,"purple","mirror","j","657e14c5630d9","exp",0
"fast","low",17,485,1502,"white",NA,"j","Inf","control2",0
"fast","low",17,304,1809,"pink",NA,"j","657e11e1938dd","exp",0
"fast","low",17,265,1338,"tan",NA,"j","657e14c5630d9","exp",0
"fast","low",17,197,1651,"tan",NA,"j","657e2dc92ea25","exp",0
"fast","low",17,371,1668,"tan","mirror","j","657e2967c5345","exp",0
"fast","low",17,281,1506,"tan",NA,"f","657e1f4edabb8","exp",0
"fast","low",17,45,1502,"white",NA,"f","Inf","control1",0
"fast","low",17,24,1253,"white","mirror","f","657e2dc92ea25","control1",0
"fast","low",17,97,1165,"teal",NA,"j","657e14c5630d9","exp",0
"fast","low",17,164,1467,"teal","mirror","j","657e1a1580ea9","exp",0
"fast","low",17,26,1415,"white",NA,"j","657e1f4edabb8","control1",0
"fast","low",17,382,3161,"pink",NA,"j","657f6bfb51682","exp",0
"fast","low",17,166,1613,"pink","mirror","j","657e1f4edabb8","exp",0
"fast","low",5,64,1347,"purple",NA,"f","657e11e1938dd","exp",1
"fast","low",5,489,1335,"white",NA,"f","657e2dc92ea25","control2",1
"fast","low",5,179,1859,"tan",NA,"f","657f6bfb51682","exp",1
"fast","low",5,314,1554,"pink","mirror","f","657f6bfb51682","exp",1
"fast","low",5,292,1476,"tan","mirror","f","657e237cce8ca","exp",1
"fast","low",5,346,1373,"white",NA,"f","657e14c5630d9","control2",1
"fast","low",5,71,1342,"white","mirror","f","657e2967c5345","control1",1
"fast","low",5,69,1670,"white",NA,"f","657e237cce8ca","control1",1
"fast","low",5,142,1416,"purple","mirror","f","657e2dc92ea25","exp",1
"fast","low",5,191,1318,"tan","mirror","f","657e1a1580ea9","exp",1
"fast","low",5,267,1355,"teal",NA,"f","657e1a1580ea9","exp",1
"fast","low",5,132,1719,"tan",NA,"f","657e14c5630d9","exp",1
"fast","low",5,14,1441,"white",NA,"f","Inf","control1",1
"fast","low",5,561,1204,"white",NA,"f","657e237cce8ca","control2",1
"fast","low",5,328,2003,"teal",NA,"f","Inf","exp",1
"fast","low",5,475,1489,"white",NA,"f","657e1a1580ea9","control2",1
"fast","low",5,52,1485,"teal","mirror","f","657e11e1938dd","exp",1
"fast","low",5,369,1174,"teal",NA,"f","657e2967c5345","exp",1
"fast","low",5,104,1654,"white","mirror","f","657e1a1580ea9","control1",1
"fast","low",5,565,1286,"white","mirror","f","657e1f4edabb8","control2",1
"fast","low",5,333,1435,"teal",NA,"f","657e2dc92ea25","exp",1
"fast","low",5,534,1175,"white",NA,"f","657e2967c5345","control2",1
"fast","low",5,333,1351,"purple",NA,"f","657e237cce8ca","exp",1
"fast","low",5,508,1486,"white",NA,"f","657f6bfb51682","control2",1
"fast","low",5,358,1291,"white",NA,"f","657e11e1938dd","control2",1
"fast","low",5,193,5776,"teal",NA,"f","657e1f4edabb8","exp",1
"fast","low",5,77,1258,"white",NA,"f","657e2dc92ea25","control1",1
"fast","low",5,6,3525,"white",NA,"j","657e1f4edabb8","control1",1
"fast","low",5,304,1422,"teal","mirror","f","657e14c5630d9","exp",1
"fast","low",5,343,1382,"purple","mirror","f","Inf","exp",1
"fast","low",5,191,1139,"purple","mirror","f","657e1f4edabb8","exp",1
"fast","low",5,32,1953,"white","mirror","f","657f6bfb51682","control1",1
"fast","low",5,500,1492,"white",NA,"f","Inf","control2",1
"fast","low",5,210,1199,"pink","mirror","f","657e2967c5345","exp",1
"fast","med",11,430,1581,"white",NA,"f","657e14c5630d9","control2",1
"fast","med",11,41,1174,"purple",NA,"f","657e11e1938dd","exp",1
"fast","med",11,324,1784,"purple",NA,"j","657f6bfb51682","exp",1
"fast","med",11,187,4481,"tan",NA,"f","657e237cce8ca","exp",1
"fast","med",11,232,1009,"purple","mirror","f","657e1f4edabb8","exp",1
"fast","med",11,489,1227,"white","mirror","j","657e237cce8ca","control2",1
"fast","med",11,279,1128,"tan","mirror","f","657e2dc92ea25","exp",1
"fast","med",11,220,7623,"teal","mirror","f","657e1a1580ea9","exp",1
"fast","med",11,267,1510,"purple","mirror","f","657e237cce8ca","exp",1
"fast","med",11,173,1911,"teal","mirror","f","657e14c5630d9","exp",1
"fast","med",11,557,1206,"white","mirror","f","657e2dc92ea25","control2",1
"fast","med",11,375,1299,"white","mirror","f","657e11e1938dd","control2",1
"fast","med",11,333,1678,"tan","mirror","f","Inf","exp",1
"fast","med",11,37,1583,"pink",NA,"f","657e14c5630d9","exp",1
"fast","med",11,369,1640,"teal","mirror","f","657f6bfb51682","exp",1
"fast","med",11,516,963,"white",NA,"f","657e2967c5345","control2",1
"fast","med",11,45,1091,"white",NA,"f","657e1f4edabb8","control1",1
"fast","med",11,236,1463,"tan","mirror","f","657e2967c5345","exp",1
"fast","med",11,48,1182,"pink","mirror","f","657e11e1938dd","exp",1
"fast","med",11,22,1221,"white",NA,"f","657e2967c5345","control1",1
"fast","med",11,398,1321,"pink",NA,"f","657e2dc92ea25","exp",1
"fast","med",11,526,1182,"white",NA,"f","657e1f4edabb8","control2",1
"fast","med",11,102,1661,"white",NA,"f","657f6bfb51682","control1",1
"fast","med",11,448,1281,"white","mirror","f","657e1a1580ea9","control2",1
"fast","med",11,341,1128,"teal",NA,"f","657e1f4edabb8","exp",1
"fast","med",11,51,1359,"white","mirror","f","657e1a1580ea9","control1",1
"fast","med",11,306,974,"pink",NA,"f","657e2967c5345","exp",1
"fast","med",11,508,1320,"white",NA,"f","Inf","control2",1
"fast","med",11,4,2313,"white","mirror","f","657e237cce8ca","control1",1
"fast","med",11,438,1724,"white",NA,"f","657f6bfb51682","control2",1
"fast","med",11,118,1878,"white",NA,"f","Inf","control1",1
"fast","med",11,65,1217,"white","mirror","f","657e2dc92ea25","control1",1
"fast","med",11,326,1207,"pink",NA,"f","657e1a1580ea9","exp",1
"fast","med",11,406,2331,"pink",NA,"f","Inf","exp",1
"fast","med",13,169,948,"purple","mirror","f","657e1f4edabb8","exp",1
"fast","med",13,118,6213,"white","mirror","j","657f6bfb51682","control1",1
"fast","med",13,551,1330,"white","mirror","f","657e1a1580ea9","control2",1
"fast","med",13,450,1926,"white",NA,"j","657f6bfb51682","control2",1
"fast","med",13,236,1731,"teal","mirror","f","657e237cce8ca","exp",1
"fast","med",13,28,1075,"white",NA,"f","657e2dc92ea25","control1",1
"fast","med",13,66,1588,"pink","mirror","f","657e11e1938dd","exp",1
"fast","med",13,343,2048,"teal","mirror","f","657e1a1580ea9","exp",1
"fast","med",13,224,1531,"tan","mirror","f","Inf","exp",1
"fast","med",13,232,1526,"pink","mirror","f","657e14c5630d9","exp",1
"fast","med",13,314,1473,"teal",NA,"f","Inf","exp",1
"fast","med",13,463,1276,"white","mirror","f","657e237cce8ca","control2",1
"fast","med",13,49,1332,"white",NA,"f","657e1a1580ea9","control1",1
"fast","med",13,365,1070,"purple","mirror","f","657e2967c5345","exp",1
"fast","med",13,267,1792,"purple","mirror","f","657e2dc92ea25","exp",1
"fast","med",13,431,1207,"teal",NA,"f","657e1f4edabb8","exp",1
"fast","med",13,408,1100,"pink",NA,"f","657e2dc92ea25","exp",1
"fast","med",13,363,2577,"teal",NA,"j","657f6bfb51682","exp",1
"fast","med",13,421,1330,"pink",NA,"f","657e237cce8ca","exp",1
"fast","med",13,394,1336,"teal",NA,"f","657e2967c5345","exp",1
"fast","med",13,69,1612,"white",NA,"f","Inf","control1",1
"fast","med",13,131,1298,"white",NA,"f","657e237cce8ca","control1",1
"fast","med",13,405,1235,"white",NA,"f","657e11e1938dd","control2",1
"fast","med",13,434,1274,"white",NA,"f","657e1f4edabb8","control2",1
"fast","med",13,246,5396,"tan",NA,"f","657e1a1580ea9","exp",1
"fast","med",13,191,1518,"teal",NA,"f","657e11e1938dd","exp",1
"fast","med",13,518,1312,"white",NA,"f","657e2dc92ea25","control2",1
"fast","med",13,495,1791,"white","mirror","f","Inf","control2",1
"fast","med",13,133,1239,"white","mirror","f","657e1f4edabb8","control1",1
"fast","med",13,557,1024,"white",NA,"f","657e2967c5345","control2",1
"fast","med",13,18,888,"white",NA,"f","657e2967c5345","control1",1
"fast","med",13,70,2424,"purple",NA,"j","657e14c5630d9","exp",1
"fast","med",13,395,1356,"white",NA,"f","657e14c5630d9","control2",1
"fast","med",13,261,2404,"pink","mirror","f","657f6bfb51682","exp",1
"fast","med",14,314,1067,"purple","mirror","f","657e2967c5345","exp",1
"fast","med",14,96,1029,"white","mirror","f","657e2dc92ea25","control1",1
"fast","med",14,333,1035,"purple",NA,"f","657e1f4edabb8","exp",1
"fast","med",14,30,1489,"white","mirror","f","657e1a1580ea9","control1",1
"fast","med",14,92,1004,"white","mirror","f","657e1f4edabb8","control1",1
"fast","med",14,446,7550,"white","mirror","j","657f6bfb51682","control2",1
"fast","med",14,224,1095,"tan","mirror","f","657e1f4edabb8","exp",1
"fast","med",14,467,1095,"white","mirror","f","657e1f4edabb8","control2",1
"fast","med",14,420,1499,"white",NA,"f","657e11e1938dd","control2",1
"fast","med",14,138,2368,"teal",NA,"f","657e14c5630d9","exp",1
"fast","med",14,504,817,"white","mirror","f","657e2967c5345","control2",1
"fast","med",14,218,2436,"pink","mirror","f","657e14c5630d9","exp",1
"fast","med",14,408,1216,"tan",NA,"f","657e1a1580ea9","exp",1
"fast","med",14,224,1708,"purple","mirror","f","657e237cce8ca","exp",1
"fast","med",14,63,1179,"white",NA,"f","657e2967c5345","control1",1
"fast","med",14,370,1204,"white",NA,"f","657e14c5630d9","control2",1
"fast","med",14,144,5402,"pink",NA,"f","657e2967c5345","exp",1
"fast","med",14,248,1283,"teal","mirror","f","657e2dc92ea25","exp",1
"fast","med",14,49,1880,"white",NA,"f","657e237cce8ca","control1",1
"fast","med",14,483,1204,"white","mirror","f","657e2dc92ea25","control2",1
"fast","med",14,138,3892,"tan","mirror","j","657f6bfb51682","exp",1
"fast","med",14,248,1550,"pink","mirror","f","657e11e1938dd","exp",1
"fast","med",14,59,7777,"white","mirror","j","657f6bfb51682","control1",1
"fast","med",14,162,1087,"pink",NA,"f","657e2dc92ea25","exp",1
"fast","med",14,557,1685,"white",NA,"f","657e1a1580ea9","control2",1
"fast","med",14,408,2288,"pink",NA,"f","Inf","exp",1
"fast","med",14,207,4704,"pink","mirror","f","657e1a1580ea9","exp",1
"fast","med",14,384,1418,"tan","mirror","f","Inf","exp",1
"fast","med",14,255,1891,"pink",NA,"f","657e237cce8ca","exp",1
"fast","med",14,40,1400,"white",NA,"f","Inf","control1",1
"fast","med",14,469,1451,"white","mirror","f","Inf","control2",1
"fast","med",14,150,4047,"teal",NA,"f","657f6bfb51682","exp",1
"fast","med",14,146,1625,"teal",NA,"f","657e11e1938dd","exp",1
"fast","med",14,547,926,"white","mirror","f","657e237cce8ca","control2",1
"fast","med",15,331,6614,"white",NA,"j","657e14c5630d9","control2",0
"fast","med",15,308,1640,"pink","mirror","f","657e237cce8ca","exp",0
"fast","med",15,289,1210,"teal",NA,"f","657e1f4edabb8","exp",0
"fast","med",15,353,1105,"tan",NA,"f","657e2967c5345","exp",0
"fast","med",15,528,1262,"white",NA,"f","657e2dc92ea25","control2",0
"fast","med",15,508,874,"white","mirror","f","657e2967c5345","control2",0
"fast","med",15,50,1449,"purple","mirror","j","657e11e1938dd","exp",0
"fast","med",15,491,1970,"white",NA,"j","657e1a1580ea9","control2",0
"fast","med",15,273,1537,"tan",NA,"f","Inf","exp",0
"fast","med",15,277,1337,"pink",NA,"f","657e2dc92ea25","exp",0
"fast","med",15,83,1175,"white",NA,"f","657e1f4edabb8","control1",0
"fast","med",15,371,1164,"tan",NA,"f","657e1f4edabb8","exp",0
"fast","med",15,199,1577,"pink",NA,"f","Inf","exp",0
"fast","med",15,339,4374,"purple",NA,"j","657f6bfb51682","exp",0
"fast","med",15,471,1921,"white","mirror","j","657f6bfb51682","control2",0
"fast","med",15,341,1602,"teal","mirror","f","657e1a1580ea9","exp",0
"fast","med",15,545,1548,"white","mirror","f","657e1f4edabb8","control2",0
"fast","med",15,135,1625,"white",NA,"f","Inf","control1",0
"fast","med",15,214,1540,"purple",NA,"f","657e2dc92ea25","exp",0
"fast","med",15,177,1578,"purple","mirror","f","657e1a1580ea9","exp",0
"fast","med",15,12,1472,"white","mirror","j","657e14c5630d9","control1",0
"fast","med",15,106,2127,"white","mirror","j","657e237cce8ca","control1",0
"fast","med",15,152,2805,"pink","mirror","f","657e2967c5345","exp",0
"fast","med",15,352,1762,"white",NA,"f","657e11e1938dd","control2",0
"fast","med",15,417,1312,"teal","mirror","f","657e2dc92ea25","exp",0
"fast","med",15,105,1711,"pink",NA,"f","657e11e1938dd","exp",0
"fast","med",15,135,1505,"white",NA,"f","657e1a1580ea9","control1",0
"fast","med",15,518,1476,"white",NA,"f","Inf","control2",0
"fast","med",15,285,2075,"pink","mirror","f","657f6bfb51682","exp",0
"fast","med",15,339,1761,"teal","mirror","f","657e2967c5345","exp",0
"fast","med",15,328,1058,"purple","mirror","f","657e1f4edabb8","exp",0
"fast","med",15,177,2746,"pink","mirror","j","657e14c5630d9","exp",0
"fast","med",15,275,1688,"teal","mirror","f","Inf","exp",0
"fast","med",15,353,2651,"tan","mirror","j","657e237cce8ca","exp",0
"fast","med",15,14,854,"white",NA,"f","657e2967c5345","control1",0
"fast","med",15,108,1724,"white",NA,"f","657e2dc92ea25","control1",0
"fast","med",15,46,1376,"tan",NA,"f","657e11e1938dd","exp",0
"fast","med",15,322,1283,"tan",NA,"f","657e1a1580ea9","exp",0
"fast","med",15,191,1413,"purple","mirror","j","657e14c5630d9","exp",0
"fast","med",15,308,4571,"tan",NA,"f","657f6bfb51682","exp",0
"fast","med",15,279,1774,"teal",NA,"j","657e14c5630d9","exp",0
"fast","med",15,506,1958,"white",NA,"j","657e237cce8ca","control2",0
"fast","med",15,177,1764,"purple",NA,"f","657e237cce8ca","exp",0
"fast","med",15,71,2667,"white",NA,"j","657f6bfb51682","control1",0
"fast","med",16,408,995,"teal","mirror","f","657e2967c5345","exp",0
"fast","med",16,207,1331,"teal",NA,"f","Inf","exp",0
"fast","med",16,463,1372,"white",NA,"f","657e2967c5345","control2",0
"fast","med",16,34,1262,"white","mirror","f","657e2dc92ea25","control1",0
"fast","med",16,207,1297,"purple",NA,"f","657e1f4edabb8","exp",0
"fast","med",16,400,1223,"teal",NA,"f","657e1f4edabb8","exp",0
"fast","med",16,216,17351,"purple",NA,"f","657e1a1580ea9","exp",0
"fast","med",16,394,1483,"tan","mirror","j","657e1f4edabb8","exp",0
"fast","med",16,539,1176,"white",NA,"f","657e1a1580ea9","control2",0
"fast","med",16,10,1479,"white","mirror","f","Inf","control1",0
"fast","med",16,162,2936,"teal","mirror","f","657e1a1580ea9","exp",0
"fast","med",16,279,1257,"teal","mirror","f","657e237cce8ca","exp",0
"fast","med",16,296,2832,"tan","mirror","f","657e1a1580ea9","exp",0
"fast","med",16,271,1207,"tan","mirror","f","657e2967c5345","exp",0
"fast","med",16,230,1714,"pink",NA,"f","657e11e1938dd","exp",0
"fast","med",16,409,1504,"white","mirror","j","657e14c5630d9","control2",0
"fast","med",16,183,2273,"tan","mirror","f","657e237cce8ca","exp",0
"fast","med",16,81,5340,"white",NA,"j","657f6bfb51682","control1",0
"fast","med",16,129,1467,"white","mirror","f","657e1a1580ea9","control1",0
"fast","med",16,539,1415,"white",NA,"f","Inf","control2",0
"fast","med",16,526,1298,"white","mirror","f","657e2dc92ea25","control2",0
"fast","med",16,565,1102,"white",NA,"f","657e237cce8ca","control2",0
"fast","med",16,561,4485,"white",NA,"j","657f6bfb51682","control2",0
"fast","med",16,357,1460,"pink",NA,"f","657e2dc92ea25","exp",0
"fast","med",16,232,1643,"tan","mirror","f","657e11e1938dd","exp",0
"fast","med",16,162,1683,"teal","mirror","j","657e14c5630d9","exp",0
"fast","med",16,253,1493,"purple","mirror","f","657e11e1938dd","exp",0
"fast","med",16,422,1601,"white","mirror","j","657e11e1938dd","control2",0
"fast","med",16,79,1785,"white","mirror","j","657e237cce8ca","control1",0
"fast","med",16,183,1508,"teal",NA,"f","657e2dc92ea25","exp",0
"fast","med",16,185,1504,"tan","mirror","j","657e14c5630d9","exp",0
"fast","med",16,506,1797,"white",NA,"f","657e1f4edabb8","control2",0
"fast","med",16,406,2539,"pink",NA,"j","657e237cce8ca","exp",0
"fast","med",16,302,1283,"tan","mirror","f","657e2dc92ea25","exp",0
"fast","med",16,93,1392,"purple",NA,"j","657e14c5630d9","exp",0
"fast","med",16,277,1814,"purple","mirror","f","Inf","exp",0
"fast","med",16,367,2953,"teal","mirror","j","657f6bfb51682","exp",0
"fast","med",16,135,1150,"white",NA,"f","657e1f4edabb8","control1",0
"fast","med",16,94,1247,"white","mirror","f","657e2967c5345","control1",0
"fast","med",16,423,2468,"pink","mirror","j","657f6bfb51682","exp",0
"fast","med",16,148,1824,"tan","mirror","j","Inf","exp",0
"fast","med",16,415,1072,"pink",NA,"f","657e2967c5345","exp",0
"fast","med",16,421,2296,"purple",NA,"f","657f6bfb51682","exp",0
"fast","med",17,481,1422,"white","mirror","f","Inf","control2",0
"fast","med",17,520,1756,"white",NA,"j","657f6bfb51682","control2",0
"fast","med",17,55,1880,"white",NA,"j","657e237cce8ca","control1",0
"fast","med",17,495,1712,"white","mirror","j","657e1a1580ea9","control2",0
"fast","med",17,406,1043,"tan",NA,"f","657e2967c5345","exp",0
"fast","med",17,263,2046,"teal","mirror","f","657e2dc92ea25","exp",0
"fast","med",17,50,1429,"teal",NA,"j","657e14c5630d9","exp",0
"fast","med",17,251,1505,"tan","mirror","f","Inf","exp",0
"fast","med",17,248,2800,"purple",NA,"j","657e237cce8ca","exp",0
"fast","med",17,512,911,"white",NA,"f","657e2967c5345","control2",0
"fast","med",17,520,1287,"white",NA,"f","657e2dc92ea25","control2",0
"fast","med",17,423,2327,"teal","mirror","f","657e1a1580ea9","exp",0
"fast","med",17,40,3159,"white","mirror","j","657e2967c5345","control1",0
"fast","med",17,279,1271,"pink","mirror","f","657e2967c5345","exp",0
"fast","med",17,321,2041,"white",NA,"j","657e11e1938dd","control2",0
"fast","med",17,275,3592,"teal","mirror","j","657e237cce8ca","exp",0
"fast","med",17,426,804,"white","mirror","j","657e14c5630d9","control2",0
"fast","med",17,218,1636,"purple","mirror","f","657e11e1938dd","exp",0
"fast","med",17,412,2174,"purple","mirror","j","657e1f4edabb8","exp",0
"fast","med",17,88,1354,"white","mirror","f","657e1f4edabb8","control1",0
"fast","med",17,371,1539,"purple",NA,"f","Inf","exp",0
"fast","med",17,425,1342,"tan",NA,"f","657e2dc92ea25","exp",0
"fast","med",17,146,1329,"pink",NA,"f","657e1f4edabb8","exp",0
"fast","med",17,353,1576,"purple",NA,"f","657e1a1580ea9","exp",0
"fast","med",17,39,1496,"tan","mirror","j","657e14c5630d9","exp",0
"fast","med",17,16,2782,"white","mirror","j","657f6bfb51682","control1",0
"fast","med",17,100,1864,"white","mirror","f","Inf","control1",0
"fast","med",17,122,1467,"white",NA,"f","657e2dc92ea25","control1",0
"fast","med",17,536,1249,"white",NA,"f","657e237cce8ca","control2",0
"fast","med",17,557,1268,"white","mirror","j","657e1f4edabb8","control2",0
"fast","med",17,396,3376,"tan","mirror","j","657f6bfb51682","exp",0
"fast","med",17,179,1516,"tan",NA,"f","657e11e1938dd","exp",0
"fast","med",17,114,1636,"white",NA,"f","657e1a1580ea9","control1",0
"fast","med",17,175,7013,"purple",NA,"j","657f6bfb51682","exp",0
"fast","med",6,549,1164,"white","mirror","f","657e2967c5345","control2",1
"fast","med",6,244,1278,"teal",NA,"f","657e11e1938dd","exp",1
"fast","med",6,69,1364,"white",NA,"f","657e1a1580ea9","control1",1
"fast","med",6,242,1381,"purple","mirror","f","Inf","exp",1
"fast","med",6,169,1672,"pink",NA,"f","657e237cce8ca","exp",1
"fast","med",6,318,1364,"teal",NA,"f","657e2dc92ea25","exp",1
"fast","med",6,514,1317,"white",NA,"f","657e1f4edabb8","control2",1
"fast","med",6,220,1759,"purple","mirror","f","657f6bfb51682","exp",1
"fast","med",6,401,1338,"white","mirror","f","657e14c5630d9","control2",1
"fast","med",6,333,1824,"tan",NA,"f","657f6bfb51682","exp",1
"fast","med",6,285,5207,"purple","mirror","j","657e1f4edabb8","exp",1
"fast","med",6,62,1426,"tan","mirror","f","657e14c5630d9","exp",1
"fast","med",6,15,2075,"purple",NA,"f","657e14c5630d9","exp",1
"fast","med",6,349,1331,"purple","mirror","f","657e2dc92ea25","exp",1
"fast","med",6,102,1663,"white","mirror","f","657e2967c5345","control1",1
"fast","med",6,193,2276,"tan","mirror","f","657e237cce8ca","exp",1
"fast","med",6,442,1012,"white",NA,"f","657e237cce8ca","control2",1
"fast","med",6,181,1134,"teal",NA,"f","657e1f4edabb8","exp",1
"fast","med",6,444,1389,"white",NA,"f","Inf","control2",1
"fast","med",6,350,1237,"white","mirror","f","657e11e1938dd","control2",1
"fast","med",6,240,3532,"teal","mirror","j","657e2967c5345","exp",1
"fast","med",6,543,1289,"white",NA,"f","657e1a1580ea9","control2",1
"fast","med",6,534,2210,"white","mirror","f","657f6bfb51682","control2",1
"fast","med",6,4,2563,"white",NA,"f","657e1f4edabb8","control1",1
"fast","med",6,220,1602,"tan",NA,"f","Inf","exp",1
"fast","med",6,127,1903,"white",NA,"f","657f6bfb51682","control1",1
"fast","med",6,541,1156,"white",NA,"f","657e2dc92ea25","control2",1
"fast","med",6,285,1470,"tan",NA,"f","657e1a1580ea9","exp",1
"fast","med",6,242,1341,"pink","mirror","f","657e1a1580ea9","exp",1
"fast","med",6,51,1352,"white","mirror","f","Inf","control1",1
"fast","med",6,310,1411,"pink",NA,"f","657e2967c5345","exp",1
"fast","med",6,38,1050,"white",NA,"f","657e2dc92ea25","control1",1
"fast","med",6,71,1455,"white",NA,"f","657e237cce8ca","control1",1
"fast","med",6,275,1369,"tan","mirror","f","657e11e1938dd","exp",1
"med","high",1,459,1691,"white","mirror","f","657f6bfb51682","control2",1
"med","high",1,158,1581,"tan","mirror","f","Inf","exp",1
"med","high",1,285,1410,"purple","mirror","f","657e11e1938dd","exp",1
"med","high",1,326,1353,"purple","mirror","f","657e237cce8ca","exp",1
"med","high",1,89,1591,"purple",NA,"f","657e14c5630d9","exp",1
"med","high",1,199,1266,"tan",NA,"f","657e11e1938dd","exp",1
"med","high",1,146,1518,"teal",NA,"j","657e237cce8ca","exp",1
"med","high",1,197,1723,"tan","mirror","f","657e2967c5345","exp",1
"med","high",1,22,1328,"white",NA,"f","Inf","control1",1
"med","high",1,53,1344,"white","mirror","f","657e2dc92ea25","control1",1
"med","high",1,63,1431,"white","mirror","f","657e1a1580ea9","control1",1
"med","high",1,408,1563,"teal",NA,"f","657e1f4edabb8","exp",1
"med","high",1,294,3310,"teal","mirror","f","657e14c5630d9","exp",1
"med","high",1,205,1481,"purple",NA,"f","Inf","exp",1
"med","high",1,296,1159,"purple","mirror","f","657e2dc92ea25","exp",1
"med","high",1,412,1906,"pink",NA,"j","657f6bfb51682","exp",1
"med","high",1,222,1330,"pink","mirror","f","657e1a1580ea9","exp",1
"med","high",1,402,1406,"pink",NA,"f","657e2967c5345","exp",1
"med","high",1,403,1088,"white",NA,"f","657e11e1938dd","control2",1
"med","high",1,520,1665,"white","mirror","f","657e2967c5345","control2",1
"med","high",1,79,1226,"white",NA,"f","657e2967c5345","control1",1
"med","high",1,63,1769,"white","mirror","f","657f6bfb51682","control1",1
"med","high",1,457,1420,"white","mirror","f","657e1a1580ea9","control2",1
"med","high",1,404,1613,"teal","mirror","f","657f6bfb51682","exp",1
"med","high",1,563,1172,"white",NA,"f","657e237cce8ca","control2",1
"med","high",1,24,2363,"white",NA,"j","657e237cce8ca","control1",1
"med","high",1,312,3412,"pink","mirror","f","657e1f4edabb8","exp",1
"med","high",1,553,1331,"white","mirror","f","Inf","control2",1
"med","high",1,355,1423,"pink",NA,"f","657e2dc92ea25","exp",1
"med","high",1,508,1368,"white","mirror","f","657e2dc92ea25","control2",1
"med","high",1,156,1696,"tan",NA,"f","657e1a1580ea9","exp",1
"med","high",1,67,1260,"white",NA,"j","657e1f4edabb8","control1",1
"med","high",1,321,1891,"white",NA,"f","657e14c5630d9","control2",1
"med","high",1,534,1426,"white","mirror","f","657e1f4edabb8","control2",1
"med","high",10,131,2032,"white","mirror","j","657e1f4edabb8","control1",0
"med","high",10,201,1278,"purple","mirror","j","657e1f4edabb8","exp",0
"med","high",10,524,1382,"white",NA,"j","657e2967c5345","control2",0
"med","high",10,177,1691,"pink",NA,"j","657f6bfb51682","exp",0
"med","high",10,388,1688,"purple",NA,"j","657e2967c5345","exp",0
"med","high",10,242,2941,"tan",NA,"f","657e2dc92ea25","exp",0
"med","high",10,34,1912,"white","mirror","j","657e237cce8ca","control1",0
"med","high",10,382,1672,"teal","mirror","j","657e2967c5345","exp",0
"med","high",10,339,1651,"purple","mirror","j","657e237cce8ca","exp",0
"med","high",10,133,1969,"white",NA,"j","657f6bfb51682","control1",0
"med","high",10,493,2378,"white","mirror","j","657e1a1580ea9","control2",0
"med","high",10,306,1308,"pink","mirror","j","657e14c5630d9","exp",0
"med","high",10,506,4887,"white",NA,"j","657e2dc92ea25","control2",0
"med","high",10,74,1546,"tan","mirror","j","657e11e1938dd","exp",0
"med","high",10,444,1491,"white",NA,"j","657e1f4edabb8","control2",0
"med","high",10,376,1429,"tan",NA,"j","657e1a1580ea9","exp",0
"med","high",10,92,1871,"white",NA,"j","657e1a1580ea9","control1",0
"med","high",10,424,869,"white","mirror","j","657e14c5630d9","control2",0
"med","high",10,203,1018,"teal",NA,"f","657e1f4edabb8","exp",0
"med","high",10,345,1420,"pink","mirror","j","657e1a1580ea9","exp",0
"med","high",10,526,1676,"white",NA,"j","Inf","control2",0
"med","high",10,485,1053,"white",NA,"f","657e237cce8ca","control2",0
"med","high",10,232,1500,"tan","mirror","j","Inf","exp",0
"med","high",10,551,1619,"white",NA,"j","657f6bfb51682","control2",0
"med","high",10,265,18587,"purple","mirror","f","657e2dc92ea25","exp",0
"med","high",10,326,1636,"purple","mirror","j","657f6bfb51682","exp",0
"med","high",10,42,1245,"white","mirror","f","657e2dc92ea25","control1",0
"med","high",10,154,1628,"teal",NA,"j","657e11e1938dd","exp",0
"med","high",10,49,1927,"white","mirror","j","657e2967c5345","control1",0
"med","high",10,124,1554,"white",NA,"j","Inf","control1",0
"med","high",10,370,1704,"white","mirror","f","657e11e1938dd","control2",0
"med","high",10,181,1517,"tan",NA,"j","657e14c5630d9","exp",0
"med","high",10,427,1735,"tan",NA,"j","657e237cce8ca","exp",0
"med","high",10,417,1642,"purple",NA,"j","Inf","exp",0
"med","high",13,6,4824,"white",NA,"f","657e1a1580ea9","control1",0
"med","high",13,452,1761,"white","mirror","j","Inf","control2",0
"med","high",13,191,1471,"tan","mirror","j","657e2967c5345","exp",0
"med","high",13,185,1674,"pink",NA,"j","Inf","exp",0
"med","high",13,330,1258,"tan",NA,"j","657e1a1580ea9","exp",0
"med","high",13,116,1522,"white","mirror","j","657e237cce8ca","control1",0
"med","high",13,177,3248,"pink",NA,"f","657e2dc92ea25","exp",0
"med","high",13,136,1521,"purple",NA,"j","657e11e1938dd","exp",0
"med","high",13,273,5273,"teal","mirror","j","657e237cce8ca","exp",0
"med","high",13,342,1519,"white",NA,"j","657e11e1938dd","control2",0
"med","high",13,212,1432,"purple",NA,"j","657e237cce8ca","exp",0
"med","high",13,306,1479,"purple","mirror","j","657e1a1580ea9","exp",0
"med","high",13,152,3400,"teal","mirror","f","Inf","exp",0
"med","high",13,160,7632,"teal",NA,"j","657e14c5630d9","exp",0
"med","high",13,22,2811,"white",NA,"j","657f6bfb51682","control1",0
"med","high",13,246,7039,"tan","mirror","j","657f6bfb51682","exp",0
"med","high",13,92,1556,"white","mirror","j","657e2967c5345","control1",0
"med","high",13,440,2573,"white",NA,"f","657e1a1580ea9","control2",0
"med","high",13,508,1263,"white",NA,"f","657e237cce8ca","control2",0
"med","high",13,378,12021,"teal","mirror","j","657e1f4edabb8","exp",0
"med","high",13,294,1499,"pink","mirror","j","657e11e1938dd","exp",0
"med","high",13,528,1306,"white",NA,"j","657e1f4edabb8","control2",0
"med","high",13,104,1500,"white",NA,"f","657e2dc92ea25","control1",0
"med","high",13,53,1232,"white","mirror","f","657e1f4edabb8","control1",0
"med","high",13,479,2364,"white",NA,"j","657f6bfb51682","control2",0
"med","high",13,300,1020,"pink","mirror","j","657e14c5630d9","exp",0
"med","high",13,358,1320,"white",NA,"j","657e14c5630d9","control2",0
"med","high",13,495,1079,"white",NA,"f","657e2dc92ea25","control2",0
"med","high",13,234,1461,"pink",NA,"j","657e2967c5345","exp",0
"med","high",13,255,1454,"tan",NA,"j","657e1f4edabb8","exp",0
"med","high",13,438,1473,"white",NA,"j","657e2967c5345","control2",0
"med","high",13,73,1679,"white","mirror","j","Inf","control1",0
"med","high",13,351,2671,"tan","mirror","j","657e2dc92ea25","exp",0
"med","high",13,210,2259,"pink",NA,"j","657f6bfb51682","exp",0
"med","high",3,261,1395,"pink","mirror","f","657e14c5630d9","exp",1
"med","high",3,114,1553,"white",NA,"f","657e2dc92ea25","control1",1
"med","high",3,134,1316,"pink","mirror","f","657e11e1938dd","exp",1
"med","high",3,360,1450,"white",NA,"f","657e11e1938dd","control2",1
"med","high",3,416,1232,"white","mirror","f","657e14c5630d9","control2",1
"med","high",3,65,1421,"white",NA,"f","657e1f4edabb8","control1",1
"med","high",3,238,1355,"tan","mirror","f","657e2dc92ea25","exp",1
"med","high",3,210,1268,"tan",NA,"f","657e1a1580ea9","exp",1
"med","high",3,357,1165,"pink","mirror","f","657e1a1580ea9","exp",1
"med","high",3,463,1083,"white",NA,"f","657e1a1580ea9","control2",1
"med","high",3,555,1070,"white","mirror","j","657e237cce8ca","control2",1
"med","high",3,83,1382,"white","mirror","f","Inf","control1",1
"med","high",3,304,2601,"purple",NA,"f","657f6bfb51682","exp",1
"med","high",3,138,2120,"teal","mirror","f","Inf","exp",1
"med","high",3,557,1646,"white","mirror","f","657f6bfb51682","control2",1
"med","high",3,40,1250,"white",NA,"f","657e1a1580ea9","control1",1
"med","high",3,124,2465,"white","mirror","f","657e237cce8ca","control1",1
"med","high",3,207,1506,"purple","mirror","f","657e237cce8ca","exp",1
"med","high",3,73,1165,"white",NA,"f","657e2967c5345","control1",1
"med","high",3,524,1245,"white","mirror","f","657e2dc92ea25","control2",1
"med","high",3,412,1311,"tan",NA,"f","657e237cce8ca","exp",1
"med","high",3,384,1836,"tan","mirror","f","657f6bfb51682","exp",1
"med","high",3,536,1236,"white","mirror","f","657e2967c5345","control2",1
"med","high",3,380,1560,"tan",NA,"f","Inf","exp",1
"med","high",3,234,1601,"purple",NA,"f","657e11e1938dd","exp",1
"med","high",3,563,1534,"white",NA,"f","Inf","control2",1
"med","high",3,57,2113,"white",NA,"f","657f6bfb51682","control1",1
"med","high",3,355,1160,"purple",NA,"f","657e1f4edabb8","exp",1
"med","high",3,296,1481,"purple",NA,"f","657e14c5630d9","exp",1
"med","high",3,294,1097,"teal",NA,"f","657e2dc92ea25","exp",1
"med","high",3,367,1208,"purple",NA,"f","657e2967c5345","exp",1
"med","high",3,386,1582,"teal","mirror","f","657e1f4edabb8","exp",1
"med","high",3,459,1197,"white","mirror","f","657e1f4edabb8","control2",1
"med","high",3,363,1524,"pink","mirror","f","657e2967c5345","exp",1
"med","high",5,510,1328,"white",NA,"f","657e2dc92ea25","control2",1
"med","high",5,152,2192,"tan","mirror","f","657e237cce8ca","exp",1
"med","high",5,98,1687,"white",NA,"f","Inf","control1",1
"med","high",5,263,1856,"tan","mirror","f","657e14c5630d9","exp",1
"med","high",5,86,1938,"white","mirror","f","657e1f4edabb8","control1",1
"med","high",5,30,1615,"white","mirror","j","657e237cce8ca","control1",1
"med","high",5,310,1271,"pink",NA,"f","657e2dc92ea25","exp",1
"med","high",5,465,1230,"white",NA,"f","657e2967c5345","control2",1
"med","high",5,289,1125,"pink",NA,"f","657e2967c5345","exp",1
"med","high",5,8,1359,"white",NA,"f","657e11e1938dd","control1",1
"med","high",5,495,1464,"white",NA,"f","657e1f4edabb8","control2",1
"med","high",5,205,1221,"pink","mirror","f","657e11e1938dd","exp",1
"med","high",5,514,1658,"white",NA,"j","Inf","control2",1
"med","high",5,536,2510,"white",NA,"f","657f6bfb51682","control2",1
"med","high",5,173,1155,"pink",NA,"f","657e1f4edabb8","exp",1
"med","high",5,261,1671,"teal",NA,"f","Inf","exp",1
"med","high",5,526,1146,"white",NA,"f","657e237cce8ca","control2",1
"med","high",5,292,1888,"teal",NA,"f","657e1a1580ea9","exp",1
"med","high",5,337,1088,"purple","mirror","f","657e2967c5345","exp",1
"med","high",5,75,3212,"white","mirror","j","657f6bfb51682","control1",1
"med","high",5,47,1301,"white","mirror","f","657e1a1580ea9","control1",1
"med","high",5,356,1723,"white","mirror","j","657e14c5630d9","control2",1
"med","high",5,386,1471,"tan","mirror","f","657e2dc92ea25","exp",1
"med","high",5,532,1299,"white",NA,"f","657e1a1580ea9","control2",1
"med","high",5,319,1458,"white",NA,"f","657e11e1938dd","control2",1
"med","high",5,175,1682,"purple","mirror","f","Inf","exp",1
"med","high",5,71,1401,"white",NA,"f","657e2dc92ea25","control1",1
"med","high",5,187,1452,"tan","mirror","f","657e1f4edabb8","exp",1
"med","high",5,310,3395,"pink",NA,"j","657f6bfb51682","exp",1
"med","high",5,65,3132,"white",NA,"f","657e2967c5345","control1",1
"med","high",5,365,4311,"tan","mirror","f","657e1a1580ea9","exp",1
"med","high",5,257,1591,"teal",NA,"f","657e11e1938dd","exp",1
"med","high",5,398,2764,"teal","mirror","j","657f6bfb51682","exp",1
"med","high",5,417,1494,"purple",NA,"f","657e237cce8ca","exp",1
"med","high",5,144,2245,"purple",NA,"j","657e14c5630d9","exp",1
"med","high",6,173,1084,"teal","mirror","f","657e2967c5345","exp",1
"med","high",6,87,1379,"purple","mirror","j","657e14c5630d9","exp",1
"med","high",6,246,1408,"tan",NA,"f","Inf","exp",1
"med","high",6,320,1835,"purple",NA,"f","657e1f4edabb8","exp",1
"med","high",6,360,2391,"white","mirror","j","657e14c5630d9","control2",1
"med","high",6,481,1899,"white","mirror","f","657f6bfb51682","control2",1
"med","high",6,86,1656,"white","mirror","f","Inf","control1",1
"med","high",6,173,2461,"teal",NA,"f","657f6bfb51682","exp",1
"med","high",6,461,1119,"white","mirror","f","657e2967c5345","control2",1
"med","high",6,467,1493,"white","mirror","f","Inf","control2",1
"med","high",6,431,1365,"purple","mirror","f","Inf","exp",1
"med","high",6,187,1663,"pink","mirror","f","657e1a1580ea9","exp",1
"med","high",6,302,1695,"tan","mirror","f","657f6bfb51682","exp",1
"med","high",6,384,1156,"tan","mirror","f","657e1f4edabb8","exp",1
"med","high",6,77,1289,"white","mirror","f","657e1f4edabb8","control1",1
"med","high",6,120,2740,"white","mirror","f","657f6bfb51682","control1",1
"med","high",6,39,1358,"tan","mirror","f","657e11e1938dd","exp",1
"med","high",6,457,1040,"white",NA,"f","657e1f4edabb8","control2",1
"med","high",6,294,2047,"purple","mirror","f","657e237cce8ca","exp",1
"med","high",6,471,1341,"white","mirror","f","657e2dc92ea25","control2",1
"med","high",6,442,1258,"white","mirror","f","657e11e1938dd","control2",1
"med","high",6,330,3369,"tan",NA,"j","657e237cce8ca","exp",1
"med","high",6,226,1357,"tan",NA,"f","657e2dc92ea25","exp",1
"med","high",6,444,1148,"white","mirror","f","657e1a1580ea9","control2",1
"med","high",6,207,1525,"tan",NA,"f","657e2967c5345","exp",1
"med","high",6,102,1577,"white",NA,"f","657e237cce8ca","control1",1
"med","high",6,16,1016,"white","mirror","f","657e2967c5345","control1",1
"med","high",6,273,1688,"pink",NA,"f","657e11e1938dd","exp",1
"med","high",6,51,1123,"white","mirror","f","657e2dc92ea25","control1",1
"med","high",6,504,1120,"white","mirror","f","657e237cce8ca","control2",1
"med","high",6,191,1414,"teal","mirror","f","657e2dc92ea25","exp",1
"med","high",6,14,2293,"white",NA,"f","657e1a1580ea9","control1",1
"med","high",6,427,3707,"teal",NA,"f","657e1a1580ea9","exp",1
"med","high",6,125,1805,"teal",NA,"j","657e14c5630d9","exp",1
"med","high",7,371,1196,"tan",NA,"f","657e237cce8ca","exp",0
"med","high",7,467,1183,"white",NA,"f","657e2967c5345","control2",0
"med","high",7,134,1303,"pink","mirror","j","657e14c5630d9","exp",0
"med","high",7,228,1514,"purple","mirror","f","657e2dc92ea25","exp",0
"med","high",7,506,3084,"white",NA,"j","657f6bfb51682","control2",0
"med","high",7,394,1952,"pink",NA,"j","Inf","exp",0
"med","high",7,164,1456,"tan","mirror","j","657e1f4edabb8","exp",0
"med","high",7,57,1721,"white",NA,"j","Inf","control1",0
"med","high",7,57,1445,"white","mirror","f","657e2dc92ea25","control1",0
"med","high",7,110,2919,"white",NA,"j","657f6bfb51682","control1",0
"med","high",7,100,1949,"white","mirror","f","657e1a1580ea9","control1",0
"med","high",7,61,1389,"white",NA,"f","657e1f4edabb8","control1",0
"med","high",7,549,1317,"white",NA,"f","657e2dc92ea25","control2",0
"med","high",7,314,1258,"pink",NA,"f","657e2dc92ea25","exp",0
"med","high",7,195,7768,"pink","mirror","f","657e1a1580ea9","exp",0
"med","high",7,418,1998,"white",NA,"f","657e14c5630d9","control2",0
"med","high",7,197,1963,"pink","mirror","j","657e11e1938dd","exp",0
"med","high",7,146,2717,"tan",NA,"j","657f6bfb51682","exp",0
"med","high",7,454,1283,"white","mirror","f","657e1f4edabb8","control2",0
"med","high",7,361,2652,"teal","mirror","f","657f6bfb51682","exp",0
"med","high",7,398,2121,"teal","mirror","f","Inf","exp",0
"med","high",7,148,1108,"pink",NA,"f","657e1f4edabb8","exp",0
"med","high",7,514,5348,"white","mirror","j","657e1a1580ea9","control2",0
"med","high",7,362,1707,"white","mirror","f","657e11e1938dd","control2",0
"med","high",7,557,1681,"white","mirror","f","657e237cce8ca","control2",0
"med","high",7,59,1779,"white",NA,"j","657e237cce8ca","control1",0
"med","high",7,142,3241,"purple",NA,"f","657e1a1580ea9","exp",0
"med","high",7,534,1553,"white","mirror","f","Inf","control2",0
"med","high",7,312,2390,"teal","mirror","f","657e2967c5345","exp",0
"med","high",7,80,1320,"tan",NA,"j","657e14c5630d9","exp",0
"med","high",7,322,3156,"tan",NA,"j","657e2967c5345","exp",0
"med","high",7,228,1709,"purple",NA,"f","657e11e1938dd","exp",0
"med","high",7,100,1787,"white",NA,"j","657e2967c5345","control1",0
"med","high",7,166,3123,"purple","mirror","f","657e237cce8ca","exp",0
"med","high",8,71,1399,"white",NA,"j","657e1f4edabb8","control1",0
"med","high",8,495,1123,"white","mirror","f","657e2967c5345","control2",0
"med","high",8,371,6525,"tan","mirror","f","657e1a1580ea9","exp",0
"med","high",8,131,4428,"white","mirror","j","657f6bfb51682","control1",0
"med","high",8,352,2032,"white",NA,"j","657e14c5630d9","control2",0
"med","high",8,327,1558,"white","mirror","f","657e11e1938dd","control2",0
"med","high",8,491,1406,"white","mirror","j","657e237cce8ca","control2",0
"med","high",8,90,1508,"white","mirror","f","Inf","control1",0
"med","high",8,522,1379,"white","mirror","j","657e1f4edabb8","control2",0
"med","high",8,240,1159,"pink","mirror","f","657e1f4edabb8","exp",0
"med","high",8,335,1554,"purple",NA,"j","657e1f4edabb8","exp",0
"med","high",8,398,1124,"pink","mirror","f","657e237cce8ca","exp",0
"med","high",8,42,3849,"white","mirror","j","657e2967c5345","control1",0
"med","high",8,82,1058,"teal","mirror","j","657e14c5630d9","exp",0
"med","high",8,518,1727,"white",NA,"j","657e1a1580ea9","control2",0
"med","high",8,236,1635,"teal","mirror","j","657e11e1938dd","exp",0
"med","high",8,292,5599,"teal",NA,"j","657f6bfb51682","exp",0
"med","high",8,365,1513,"teal",NA,"f","Inf","exp",0
"med","high",8,59,1578,"white","mirror","f","657e1a1580ea9","control1",0
"med","high",8,12,1798,"white",NA,"j","657e237cce8ca","control1",0
"med","high",8,410,2018,"pink","mirror","j","Inf","exp",0
"med","high",8,212,1500,"pink",NA,"j","657e11e1938dd","exp",0
"med","high",8,376,1544,"purple",NA,"j","657e2967c5345","exp",0
"med","high",8,429,1726,"teal","mirror","j","657e2967c5345","exp",0
"med","high",8,22,1040,"white",NA,"f","657e2dc92ea25","control1",0
"med","high",8,410,1756,"teal",NA,"f","657e2dc92ea25","exp",0
"med","high",8,230,1544,"purple",NA,"j","657e1a1580ea9","exp",0
"med","high",8,158,2152,"purple",NA,"f","657e237cce8ca","exp",0
"med","high",8,72,1349,"tan",NA,"j","657e14c5630d9","exp",0
"med","high",8,461,1714,"white",NA,"f","Inf","control2",0
"med","high",8,440,3067,"white","mirror","f","657f6bfb51682","control2",0
"med","high",8,236,5019,"purple","mirror","j","657f6bfb51682","exp",0
"med","high",8,469,1279,"white","mirror","f","657e2dc92ea25","control2",0
"med","high",8,158,1244,"pink","mirror","f","657e2dc92ea25","exp",0
"med","low",10,226,1625,"tan","mirror","j","657e14c5630d9","exp",0
"med","low",10,146,2894,"tan",NA,"j","657e1a1580ea9","exp",0
"med","low",10,230,2403,"purple","mirror","j","657e2967c5345","exp",0
"med","low",10,415,1954,"purple","mirror","f","657e2dc92ea25","exp",0
"med","low",10,434,3658,"white",NA,"j","657f6bfb51682","control2",0
"med","low",10,298,2194,"pink",NA,"f","657e2967c5345","exp",0
"med","low",10,376,1663,"pink",NA,"j","657e237cce8ca","exp",0
"med","low",10,357,1494,"purple",NA,"f","Inf","exp",0
"med","low",10,522,1575,"white",NA,"j","657e1a1580ea9","control2",0
"med","low",10,473,1456,"white","mirror","j","Inf","control2",0
"med","low",10,386,2282,"purple","mirror","j","657f6bfb51682","exp",0
"med","low",10,296,2039,"tan",NA,"j","657e1f4edabb8","exp",0
"med","low",10,493,1476,"white",NA,"f","657e2967c5345","control2",0
"med","low",10,12,1565,"white","mirror","j","657e1f4edabb8","control1",0
"med","low",10,71,2336,"white","mirror","j","657e1a1580ea9","control1",0
"med","low",10,253,1817,"teal",NA,"j","657e2dc92ea25","exp",0
"med","low",10,40,3388,"white","mirror","f","657f6bfb51682","control1",0
"med","low",10,469,1351,"white",NA,"j","657e1f4edabb8","control2",0
"med","low",10,119,1638,"purple",NA,"f","657e11e1938dd","exp",0
"med","low",10,317,1823,"white","mirror","j","657e11e1938dd","control2",0
"med","low",10,398,1505,"purple","mirror","j","657e1a1580ea9","exp",0
"med","low",10,183,2102,"purple",NA,"j","657e14c5630d9","exp",0
"med","low",10,363,1393,"teal","mirror","j","657e1f4edabb8","exp",0
"med","low",10,83,3429,"white","mirror","f","657e2dc92ea25","control1",0
"med","low",10,379,1254,"white","mirror","j","657e14c5630d9","control2",0
"med","low",10,431,1734,"teal","mirror","j","657e237cce8ca","exp",0
"med","low",10,500,1302,"white","mirror","f","657e2dc92ea25","control2",0
"med","low",10,118,1298,"white","mirror","j","657e2967c5345","control1",0
"med","low",10,144,1654,"pink","mirror","f","657e11e1938dd","exp",0
"med","low",10,28,1403,"white","mirror","f","Inf","control1",0
"med","low",10,67,2115,"white",NA,"j","657e237cce8ca","control1",0
"med","low",10,438,1698,"white",NA,"j","657e237cce8ca","control2",0
"med","low",10,431,2734,"pink",NA,"j","657f6bfb51682","exp",0
"med","low",10,214,1643,"pink","mirror","j","Inf","exp",0
"med","low",12,248,1120,"purple",NA,"j","657e14c5630d9","exp",0
"med","low",12,355,1682,"pink",NA,"f","Inf","exp",0
"med","low",12,120,1539,"white",NA,"j","Inf","control1",0
"med","low",12,379,1464,"white","mirror","j","657e11e1938dd","control2",0
"med","low",12,341,1647,"purple","mirror","j","657e2967c5345","exp",0
"med","low",12,312,1457,"tan",NA,"j","657e237cce8ca","exp",0
"med","low",12,189,2124,"purple","mirror","j","657e1a1580ea9","exp",0
"med","low",12,98,1259,"white","mirror","j","657e237cce8ca","control1",0
"med","low",12,55,3293,"white",NA,"j","657f6bfb51682","control1",0
"med","low",12,20,1073,"white","mirror","f","657e2967c5345","control1",0
"med","low",12,259,1031,"teal","mirror","j","657e14c5630d9","exp",0
"med","low",12,207,1782,"pink",NA,"j","657e11e1938dd","exp",0
"med","low",12,316,1300,"teal","mirror","j","657e237cce8ca","exp",0
"med","low",12,565,2896,"white","mirror","j","657f6bfb51682","control2",0
"med","low",12,522,1779,"white",NA,"j","657e2967c5345","control2",0
"med","low",12,23,1325,"teal","mirror","j","657e11e1938dd","exp",0
"med","low",12,498,1700,"white",NA,"j","Inf","control2",0
"med","low",12,142,1530,"purple","mirror","j","657e1f4edabb8","exp",0
"med","low",12,292,1115,"teal",NA,"j","657e1f4edabb8","exp",0
"med","low",12,169,15586,"pink",NA,"j","657e1a1580ea9","exp",0
"med","low",12,257,6393,"pink","mirror","f","657f6bfb51682","exp",0
"med","low",12,311,1873,"white",NA,"j","657e14c5630d9","control2",0
"med","low",12,382,1544,"tan","mirror","j","Inf","exp",0
"med","low",12,530,1795,"white",NA,"f","657e2dc92ea25","control2",0
"med","low",12,326,1554,"tan",NA,"j","657e2967c5345","exp",0
"med","low",12,14,1882,"white",NA,"f","657e2dc92ea25","control1",0
"med","low",12,555,1037,"white","mirror","j","657e1f4edabb8","control2",0
"med","low",12,112,1452,"white","mirror","j","657e1a1580ea9","control1",0
"med","low",12,287,2164,"teal",NA,"j","657f6bfb51682","exp",0
"med","low",12,400,1302,"tan","mirror","j","657e2dc92ea25","exp",0
"med","low",12,559,4300,"white",NA,"j","657e237cce8ca","control2",0
"med","low",12,427,1589,"pink",NA,"j","657e2dc92ea25","exp",0
"med","low",12,446,9842,"white","mirror","j","657e1a1580ea9","control2",0
"med","low",12,51,1459,"white","mirror","j","657e1f4edabb8","control1",0
"med","low",16,432,1371,"white",NA,"j","657e14c5630d9","control2",0
"med","low",16,255,973,"tan",NA,"j","657e2967c5345","exp",0
"med","low",16,10,1538,"white","mirror","j","657e2967c5345","control1",0
"med","low",16,197,1529,"teal",NA,"j","Inf","exp",0
"med","low",16,549,2665,"white",NA,"j","657f6bfb51682","control2",0
"med","low",16,140,2284,"pink","mirror","j","657e14c5630d9","exp",0
"med","low",16,528,1572,"white",NA,"j","657e1a1580ea9","control2",0
"med","low",16,487,1171,"white",NA,"j","657e237cce8ca","control2",0
"med","low",16,212,1058,"pink","mirror","j","657e2967c5345","exp",0
"med","low",16,124,1221,"white",NA,"j","657e1f4edabb8","control1",0
"med","low",16,114,1589,"white",NA,"j","657f6bfb51682","control1",0
"med","low",16,230,2883,"teal","mirror","j","657e2dc92ea25","exp",0
"med","low",16,232,1433,"purple","mirror","j","657e1a1580ea9","exp",0
"med","low",16,57,1436,"white",NA,"j","657e1a1580ea9","control1",0
"med","low",16,91,1460,"teal","mirror","j","657e11e1938dd","exp",0
"med","low",16,406,2066,"tan",NA,"j","657f6bfb51682","exp",0
"med","low",16,49,1539,"white",NA,"f","657e2dc92ea25","control1",0
"med","low",16,228,2177,"pink",NA,"j","657e1a1580ea9","exp",0
"med","low",16,210,1686,"tan",NA,"j","657e2dc92ea25","exp",0
"med","low",16,296,1057,"tan","mirror","j","657e237cce8ca","exp",0
"med","low",16,324,1230,"purple","mirror","j","657e1f4edabb8","exp",0
"med","low",16,520,1239,"white",NA,"j","657e1f4edabb8","control2",0
"med","low",16,392,1213,"teal",NA,"j","657e1f4edabb8","exp",0
"med","low",16,504,1495,"white","mirror","j","Inf","control2",0
"med","low",16,312,1449,"purple","mirror","j","Inf","exp",0
"med","low",16,461,1299,"white",NA,"f","657e2dc92ea25","control2",0
"med","low",16,555,1568,"white","mirror","j","657e2967c5345","control2",0
"med","low",16,397,1429,"white",NA,"j","657e11e1938dd","control2",0
"med","low",16,242,1054,"purple",NA,"j","657e14c5630d9","exp",0
"med","low",16,152,1959,"pink",NA,"j","657e11e1938dd","exp",0
"med","low",16,265,1262,"purple",NA,"j","657e237cce8ca","exp",0
"med","low",16,92,1447,"white","mirror","j","Inf","control1",0
"med","low",16,114,1350,"white","mirror","j","657e237cce8ca","control1",0
"med","low",16,189,2432,"purple","mirror","j","657f6bfb51682","exp",0
"med","low",2,316,1763,"pink","mirror","f","Inf","exp",1
"med","low",2,553,1526,"white","mirror","f","657e1a1580ea9","control2",1
"med","low",2,59,3266,"white","mirror","j","657e2967c5345","control1",1
"med","low",2,230,1586,"pink","mirror","f","657e237cce8ca","exp",1
"med","low",2,61,1269,"white","mirror","f","657e2dc92ea25","control1",1
"med","low",2,244,4875,"purple",NA,"f","657f6bfb51682","exp",1
"med","low",2,502,1320,"white","mirror","f","657e2dc92ea25","control2",1
"med","low",2,363,1470,"tan",NA,"f","657e237cce8ca","exp",1
"med","low",2,532,1454,"white",NA,"f","Inf","control2",1
"med","low",2,142,2927,"tan","mirror","j","657e2967c5345","exp",1
"med","low",2,402,1208,"tan",NA,"f","657e1a1580ea9","exp",1
"med","low",2,193,1244,"pink","mirror","f","657e11e1938dd","exp",1
"med","low",2,197,4094,"teal","mirror","f","657f6bfb51682","exp",1
"med","low",2,54,1882,"purple","mirror","j","657e14c5630d9","exp",1
"med","low",2,329,1268,"white",NA,"f","657e11e1938dd","control2",1
"med","low",2,275,1428,"teal",NA,"j","657e14c5630d9","exp",1
"med","low",2,154,1369,"pink","mirror","f","657e1a1580ea9","exp",1
"med","low",2,73,3648,"white","mirror","f","657f6bfb51682","control1",1
"med","low",2,495,4155,"white","mirror","f","657f6bfb51682","control2",1
"med","low",2,322,1897,"pink",NA,"j","657e1f4edabb8","exp",1
"med","low",2,440,1112,"white","mirror","f","657e237cce8ca","control2",1
"med","low",2,20,1733,"white",NA,"f","657e237cce8ca","control1",1
"med","low",2,498,1270,"white","mirror","f","657e1f4edabb8","control2",1
"med","low",2,90,1363,"white","mirror","f","657e1a1580ea9","control1",1
"med","low",2,197,1123,"purple","mirror","f","657e1f4edabb8","exp",1
"med","low",2,36,1513,"white",NA,"f","657e1f4edabb8","control1",1
"med","low",2,130,1386,"tan",NA,"f","657e11e1938dd","exp",1
"med","low",2,342,8040,"white",NA,"j","657e14c5630d9","control2",1
"med","low",2,347,2202,"tan","mirror","f","657e2dc92ea25","exp",1
"med","low",2,277,1205,"pink",NA,"f","657e2967c5345","exp",1
"med","low",2,218,1660,"purple",NA,"j","Inf","exp",1
"med","low",2,502,1090,"white","mirror","f","657e2967c5345","control2",1
"med","low",2,289,1335,"pink",NA,"f","657e2dc92ea25","exp",1
"med","low",2,63,1336,"white","mirror","f","Inf","control1",1
"med","low",5,61,1564,"white",NA,"f","657e1a1580ea9","control1",1
"med","low",5,380,1200,"tan","mirror","f","657e2dc92ea25","exp",1
"med","low",5,415,4937,"purple",NA,"j","657e1a1580ea9","exp",1
"med","low",5,47,1805,"white","mirror","f","657f6bfb51682","control1",1
"med","low",5,271,2123,"teal","mirror","f","657e1a1580ea9","exp",1
"med","low",5,378,1150,"pink",NA,"f","657e2dc92ea25","exp",1
"med","low",5,214,1543,"teal",NA,"f","657e11e1938dd","exp",1
"med","low",5,536,1479,"white",NA,"f","Inf","control2",1
"med","low",5,104,2435,"white",NA,"f","657e2967c5345","control1",1
"med","low",5,427,1294,"teal","mirror","f","657e1f4edabb8","exp",1
"med","low",5,338,1261,"white","mirror","f","657e14c5630d9","control2",1
"med","low",5,92,1097,"white",NA,"f","657e2dc92ea25","control1",1
"med","low",5,201,3302,"pink",NA,"f","657f6bfb51682","exp",1
"med","low",5,271,1118,"tan",NA,"f","657e1f4edabb8","exp",1
"med","low",5,522,1003,"white",NA,"f","657e237cce8ca","control2",1
"med","low",5,526,1284,"white",NA,"f","657e2967c5345","control2",1
"med","low",5,60,1854,"pink","mirror","f","657e11e1938dd","exp",1
"med","low",5,320,1193,"pink",NA,"f","657e2967c5345","exp",1
"med","low",5,253,1936,"purple","mirror","f","Inf","exp",1
"med","low",5,410,2268,"purple","mirror","j","657f6bfb51682","exp",1
"med","low",5,374,1383,"tan","mirror","f","657e2967c5345","exp",1
"med","low",5,195,1572,"purple","mirror","j","657e237cce8ca","exp",1
"med","low",5,129,1364,"white",NA,"f","657e237cce8ca","control1",1
"med","low",5,154,1377,"purple","mirror","j","657e14c5630d9","exp",1
"med","low",5,387,1345,"white","mirror","f","657e11e1938dd","control2",1
"med","low",5,512,1508,"white",NA,"f","657e1f4edabb8","control2",1
"med","low",5,536,1223,"white",NA,"f","657e1a1580ea9","control2",1
"med","low",5,140,2454,"pink",NA,"j","657e237cce8ca","exp",1
"med","low",5,55,1598,"white",NA,"f","Inf","control1",1
"med","low",5,543,1371,"white",NA,"f","657e2dc92ea25","control2",1
"med","low",5,524,1819,"white",NA,"j","657f6bfb51682","control2",1
"med","low",5,38,1304,"white","mirror","f","657e1f4edabb8","control1",1
"med","low",5,152,2522,"teal",NA,"j","657e14c5630d9","exp",1
"med","low",5,257,1941,"pink",NA,"j","Inf","exp",1
"med","low",7,351,1912,"purple","mirror","f","657e1a1580ea9","exp",1
"med","low",7,224,1700,"tan","mirror","f","657e2dc92ea25","exp",1
"med","low",7,251,1446,"purple",NA,"f","657e2dc92ea25","exp",1
"med","low",7,502,1550,"white",NA,"f","657f6bfb51682","control2",1
"med","low",7,21,1564,"teal",NA,"j","657e14c5630d9","exp",1
"med","low",7,216,3350,"teal","mirror","j","657f6bfb51682","exp",1
"med","low",7,162,3763,"pink",NA,"f","657f6bfb51682","exp",1
"med","low",7,75,1395,"white","mirror","f","Inf","control1",1
"med","low",7,328,1217,"pink",NA,"f","657e2967c5345","exp",1
"med","low",7,32,1562,"white",NA,"f","657e1a1580ea9","control1",1
"med","low",7,36,1677,"white","mirror","f","657e237cce8ca","control1",1
"med","low",7,547,1062,"white","mirror","f","657e2dc92ea25","control2",1
"med","low",7,181,2288,"pink","mirror","f","657e237cce8ca","exp",1
"med","low",7,420,1236,"white","mirror","j","657e14c5630d9","control2",1
"med","low",7,267,1205,"pink","mirror","j","657e14c5630d9","exp",1
"med","low",7,236,1150,"teal","mirror","j","657e1f4edabb8","exp",1
"med","low",7,269,1633,"tan","mirror","f","Inf","exp",1
"med","low",7,561,1204,"white",NA,"f","657e2967c5345","control2",1
"med","low",7,195,1507,"pink","mirror","f","657e11e1938dd","exp",1
"med","low",7,320,1715,"teal",NA,"j","Inf","exp",1
"med","low",7,506,1708,"white","mirror","f","Inf","control2",1
"med","low",7,112,2491,"white",NA,"f","657e2967c5345","control1",1
"med","low",7,481,1231,"white","mirror","f","657e237cce8ca","control2",1
"med","low",7,351,1124,"tan",NA,"f","657e1f4edabb8","exp",1
"med","low",7,390,1058,"teal",NA,"f","657e237cce8ca","exp",1
"med","low",7,150,1798,"teal",NA,"f","657e11e1938dd","exp",1
"med","low",7,6,1985,"white","mirror","j","657f6bfb51682","control1",1
"med","low",7,255,2986,"pink",NA,"j","657e1a1580ea9","exp",1
"med","low",7,442,1133,"white",NA,"f","657e1f4edabb8","control2",1
"med","low",7,36,1063,"white","mirror","f","657e2dc92ea25","control1",1
"med","low",7,323,1422,"white","mirror","f","657e11e1938dd","control2",1
"med","low",7,18,1611,"white",NA,"j","657e1f4edabb8","control1",1
"med","low",7,500,1846,"white","mirror","f","657e1a1580ea9","control2",1
"med","low",7,201,1505,"purple","mirror","j","657e2967c5345","exp",1
"med","low",8,81,1869,"white",NA,"f","Inf","control1",1
"med","low",8,306,1388,"pink","mirror","j","657e237cce8ca","exp",1
"med","low",8,86,2789,"white",NA,"f","657f6bfb51682","control1",1
"med","low",8,563,1024,"white","mirror","f","657e2967c5345","control2",1
"med","low",8,104,1691,"white","mirror","j","657e1f4edabb8","control1",1
"med","low",8,104,1368,"white","mirror","j","657e237cce8ca","control1",1
"med","low",8,267,4240,"pink",NA,"j","657f6bfb51682","exp",1
"med","low",8,354,1591,"white",NA,"f","657e11e1938dd","control2",1
"med","low",8,166,2029,"pink","mirror","j","657e11e1938dd","exp",1
"med","low",8,471,1355,"white","mirror","f","657e1f4edabb8","control2",1
"med","low",8,318,23987,"tan",NA,"f","657e1a1580ea9","exp",1
"med","low",8,105,1016,"tan",NA,"j","657e14c5630d9","exp",1
"med","low",8,287,4713,"pink","mirror","j","657e1a1580ea9","exp",1
"med","low",8,349,1416,"tan",NA,"j","657e2967c5345","exp",1
"med","low",8,4,1830,"white",NA,"f","657e2967c5345","control1",1
"med","low",8,205,1484,"teal",NA,"j","657e237cce8ca","exp",1
"med","low",8,101,934,"teal","mirror","j","657e14c5630d9","exp",1
"med","low",8,265,1707,"tan",NA,"j","657e11e1938dd","exp",1
"med","low",8,330,1766,"tan",NA,"f","Inf","exp",1
"med","low",8,304,1731,"teal","mirror","j","657e1f4edabb8","exp",1
"med","low",8,28,1736,"white",NA,"f","657e1a1580ea9","control1",1
"med","low",8,534,7765,"white",NA,"j","657e1a1580ea9","control2",1
"med","low",8,300,1551,"teal",NA,"f","657e2dc92ea25","exp",1
"med","low",8,522,1301,"white",NA,"f","657e2dc92ea25","control2",1
"med","low",8,40,1275,"white",NA,"f","657e2dc92ea25","control1",1
"med","low",8,530,2091,"white","mirror","f","657f6bfb51682","control2",1
"med","low",8,422,2272,"white",NA,"j","657e14c5630d9","control2",1
"med","low",8,232,2908,"teal","mirror","j","657f6bfb51682","exp",1
"med","low",8,510,2663,"white","mirror","f","657e237cce8ca","control2",1
"med","low",8,545,1752,"white",NA,"f","Inf","control2",1
"med","low",8,183,1712,"purple",NA,"j","657e1f4edabb8","exp",1
"med","low",8,357,2197,"pink","mirror","j","657e2967c5345","exp",1
"med","low",8,376,1367,"pink","mirror","f","657e2dc92ea25","exp",1
"med","low",8,289,1765,"teal","mirror","f","Inf","exp",1
"med","low",9,34,3949,"white",NA,"j","657e2967c5345","control1",0
"med","low",9,222,1624,"pink",NA,"f","Inf","exp",0
"med","low",9,234,1930,"tan",NA,"j","657e237cce8ca","exp",0
"med","low",9,138,2191,"tan","mirror","j","657e11e1938dd","exp",0
"med","low",9,20,1543,"white",NA,"j","Inf","control1",0
"med","low",9,362,1997,"white","mirror","j","657e14c5630d9","control2",0
"med","low",9,563,1591,"white","mirror","f","657e2dc92ea25","control2",0
"med","low",9,232,3587,"tan",NA,"f","657e2dc92ea25","exp",0
"med","low",9,140,1724,"purple",NA,"j","657e11e1938dd","exp",0
"med","low",9,361,4376,"tan",NA,"j","657e1a1580ea9","exp",0
"med","low",9,419,3199,"pink","mirror","j","657e1a1580ea9","exp",0
"med","low",9,73,5947,"white","mirror","j","657e2dc92ea25","control1",0
"med","low",9,173,1162,"purple","mirror","j","657e237cce8ca","exp",0
"med","low",9,536,1243,"white","mirror","j","657e1f4edabb8","control2",0
"med","low",9,312,2032,"tan",NA,"f","657f6bfb51682","exp",0
"med","low",9,402,1609,"pink","mirror","f","657e2dc92ea25","exp",0
"med","low",9,261,1199,"pink",NA,"f","657e2967c5345","exp",0
"med","low",9,287,1290,"pink","mirror","j","657e14c5630d9","exp",0
"med","low",9,273,2816,"purple","mirror","f","657e2967c5345","exp",0
"med","low",9,197,1018,"tan",NA,"j","657e14c5630d9","exp",0
"med","low",9,259,1122,"pink","mirror","j","657e1f4edabb8","exp",0
"med","low",9,16,2171,"white","mirror","f","657e1a1580ea9","control1",0
"med","low",9,377,1520,"white",NA,"f","657e11e1938dd","control2",0
"med","low",9,450,1570,"white","mirror","f","Inf","control2",0
"med","low",9,8,2535,"white",NA,"j","657e237cce8ca","control1",0
"med","low",9,402,1491,"teal",NA,"j","657e1f4edabb8","exp",0
"med","low",9,302,1588,"purple","mirror","f","Inf","exp",0
"med","low",9,24,1299,"white",NA,"j","657e1f4edabb8","control1",0
"med","low",9,555,8691,"white","mirror","j","657f6bfb51682","control2",0
"med","low",9,510,1285,"white","mirror","j","657e2967c5345","control2",0
"med","low",9,380,2117,"purple","mirror","j","657f6bfb51682","exp",0
"med","low",9,493,1446,"white","mirror","j","657e237cce8ca","control2",0
"med","low",9,479,2228,"white","mirror","j","657e1a1580ea9","control2",0
"med","low",9,51,1571,"white",NA,"j","657f6bfb51682","control1",0
"med","med",1,368,1234,"white",NA,"f","657e11e1938dd","control2",1
"med","med",1,45,2105,"white",NA,"f","657e237cce8ca","control1",1
"med","med",1,277,1313,"teal","mirror","f","657e1a1580ea9","exp",1
"med","med",1,224,1349,"pink",NA,"f","657e1a1580ea9","exp",1
"med","med",1,500,1205,"white",NA,"f","657e2967c5345","control2",1
"med","med",1,367,1420,"pink","mirror","f","657e237cce8ca","exp",1
"med","med",1,88,1423,"white",NA,"f","657e2967c5345","control1",1
"med","med",1,402,1962,"pink","mirror","f","657f6bfb51682","exp",1
"med","med",1,183,1266,"tan",NA,"f","657e11e1938dd","exp",1
"med","med",1,154,1939,"tan",NA,"f","Inf","exp",1
"med","med",1,257,1318,"purple","mirror","f","657e14c5630d9","exp",1
"med","med",1,487,1466,"white","mirror","f","657e1f4edabb8","control2",1
"med","med",1,102,1686,"white",NA,"f","657e1f4edabb8","control1",1
"med","med",1,116,3622,"white",NA,"f","657f6bfb51682","control1",1
"med","med",1,423,1496,"pink","mirror","f","Inf","exp",1
"med","med",1,199,1897,"tan","mirror","f","657e2967c5345","exp",1
"med","med",1,367,1388,"teal",NA,"f","657e2dc92ea25","exp",1
"med","med",1,123,1339,"pink","mirror","f","657e11e1938dd","exp",1
"med","med",1,26,1335,"white",NA,"f","657e2dc92ea25","control1",1
"med","med",1,234,1368,"pink",NA,"f","657e1f4edabb8","exp",1
"med","med",1,138,1822,"pink","mirror","f","657e2dc92ea25","exp",1
"med","med",1,216,1416,"teal",NA,"f","657e2967c5345","exp",1
"med","med",1,251,1725,"teal",NA,"f","657e237cce8ca","exp",1
"med","med",1,479,1594,"white","mirror","f","657e237cce8ca","control2",1
"med","med",1,154,1237,"tan","mirror","f","657e1f4edabb8","exp",1
"med","med",1,364,1401,"white","mirror","f","657e14c5630d9","control2",1
"med","med",1,551,1458,"white",NA,"f","Inf","control2",1
"med","med",1,298,1293,"tan",NA,"f","657e14c5630d9","exp",1
"med","med",1,454,1370,"white","mirror","f","657e2dc92ea25","control2",1
"med","med",1,164,2028,"teal",NA,"j","657f6bfb51682","exp",1
"med","med",1,481,1057,"white",NA,"f","657e1a1580ea9","control2",1
"med","med",1,20,1716,"white",NA,"f","657e1a1580ea9","control1",1
"med","med",1,67,1343,"white","mirror","f","Inf","control1",1
"med","med",1,461,1472,"white","mirror","f","657f6bfb51682","control2",1
"med","med",11,4,2609,"white","mirror","j","657e1a1580ea9","control1",0
"med","med",11,58,1421,"pink",NA,"j","657e11e1938dd","exp",0
"med","med",11,123,897,"tan",NA,"j","657e14c5630d9","exp",0
"med","med",11,98,2671,"white","mirror","j","657f6bfb51682","control1",0
"med","med",11,261,1616,"teal",NA,"j","657e1a1580ea9","exp",0
"med","med",11,520,937,"white",NA,"j","657e237cce8ca","control2",0
"med","med",11,412,1852,"teal",NA,"j","657e2dc92ea25","exp",0
"med","med",11,477,1296,"white","mirror","j","657e1f4edabb8","control2",0
"med","med",11,294,1420,"purple","mirror","j","657e2967c5345","exp",0
"med","med",11,392,1357,"pink","mirror","j","657e2dc92ea25","exp",0
"med","med",11,318,1699,"teal","mirror","j","Inf","exp",0
"med","med",11,212,1022,"teal","mirror","j","657e1f4edabb8","exp",0
"med","med",11,416,1682,"white","mirror","j","657e11e1938dd","control2",0
"med","med",11,330,1437,"pink",NA,"j","657e2967c5345","exp",0
"med","med",11,90,1184,"white","mirror","f","657e2dc92ea25","control1",0
"med","med",11,160,1357,"purple",NA,"j","657e1f4edabb8","exp",0
"med","med",11,339,1361,"pink","mirror","j","657e1a1580ea9","exp",0
"med","med",11,269,1542,"tan","mirror","j","657f6bfb51682","exp",0
"med","med",11,195,1494,"purple",NA,"j","Inf","exp",0
"med","med",11,289,1450,"teal","mirror","j","657e11e1938dd","exp",0
"med","med",11,187,1875,"pink","mirror","j","657e14c5630d9","exp",0
"med","med",11,359,1649,"teal",NA,"j","657f6bfb51682","exp",0
"med","med",11,487,1168,"white","mirror","j","657e2967c5345","control2",0
"med","med",11,36,1176,"white",NA,"f","Inf","control1",0
"med","med",11,532,1438,"white",NA,"j","657f6bfb51682","control2",0
"med","med",11,336,892,"white","mirror","j","657e14c5630d9","control2",0
"med","med",11,442,6870,"white",NA,"f","657e1a1580ea9","control2",0
"med","med",11,18,2184,"white","mirror","j","657e237cce8ca","control1",0
"med","med",11,471,1420,"white",NA,"j","Inf","control2",0
"med","med",11,298,1635,"tan","mirror","j","657e237cce8ca","exp",0
"med","med",11,154,1311,"teal",NA,"j","657e237cce8ca","exp",0
"med","med",11,475,1329,"white","mirror","j","657e2dc92ea25","control2",0
"med","med",11,63,1332,"white",NA,"j","657e1f4edabb8","control1",0
"med","med",11,98,1766,"white","mirror","j","657e2967c5345","control1",0
"med","med",14,547,1444,"white",NA,"j","657e1f4edabb8","control2",0
"med","med",14,166,1002,"purple","mirror","j","657e14c5630d9","exp",0
"med","med",14,413,1690,"white","mirror","j","657e11e1938dd","control2",0
"med","med",14,201,1356,"teal","mirror","j","657e11e1938dd","exp",0
"med","med",14,228,1724,"tan",NA,"j","657e14c5630d9","exp",0
"med","med",14,218,1224,"teal",NA,"j","657e237cce8ca","exp",0
"med","med",14,528,879,"white",NA,"j","657e237cce8ca","control2",0
"med","med",14,96,1880,"white","mirror","j","657e2967c5345","control1",0
"med","med",14,251,2212,"purple",NA,"j","657f6bfb51682","exp",0
"med","med",14,390,12099,"teal","mirror","j","657e1a1580ea9","exp",0
"med","med",14,485,1313,"white",NA,"j","657e2dc92ea25","control2",0
"med","med",14,279,4062,"teal","mirror","j","657f6bfb51682","exp",0
"med","med",14,377,1312,"white","mirror","j","657e14c5630d9","control2",0
"med","med",14,388,1508,"tan",NA,"j","657e1f4edabb8","exp",0
"med","med",14,116,1813,"white","mirror","j","657e1f4edabb8","control1",0
"med","med",14,419,1548,"pink","mirror","j","657e1f4edabb8","exp",0
"med","med",14,88,1697,"white",NA,"j","657e1a1580ea9","control1",0
"med","med",14,102,2183,"white","mirror","f","657e2dc92ea25","control1",0
"med","med",14,255,1217,"pink","mirror","j","657e2dc92ea25","exp",0
"med","med",14,24,5177,"white",NA,"f","657f6bfb51682","control1",0
"med","med",14,150,986,"tan",NA,"j","657e2967c5345","exp",0
"med","med",14,483,1400,"white",NA,"j","657e2967c5345","control2",0
"med","med",14,115,1836,"purple",NA,"j","657e11e1938dd","exp",0
"med","med",14,230,1684,"tan","mirror","j","Inf","exp",0
"med","med",14,246,1296,"pink","mirror","j","657e237cce8ca","exp",0
"med","med",14,421,1000,"teal","mirror","j","657e2967c5345","exp",0
"med","med",14,10,1361,"white","mirror","j","657e14c5630d9","control1",0
"med","med",14,92,1256,"white",NA,"j","657e237cce8ca","control1",0
"med","med",14,454,3571,"white","mirror","j","657e1a1580ea9","control2",0
"med","med",14,187,1307,"purple",NA,"j","657e2dc92ea25","exp",0
"med","med",14,298,1746,"purple",NA,"j","Inf","exp",0
"med","med",14,436,3378,"white",NA,"j","Inf","control2",0
"med","med",14,452,1404,"white","mirror","j","657f6bfb51682","control2",0
"med","med",14,127,1422,"white","mirror","j","Inf","control1",0
"med","med",14,333,1191,"tan",NA,"j","657e1a1580ea9","exp",0
"med","med",4,412,1147,"tan","mirror","f","657e2967c5345","exp",1
"med","med",4,102,1600,"white",NA,"f","Inf","control1",1
"med","med",4,532,1004,"white","mirror","f","657e237cce8ca","control2",1
"med","med",4,520,1590,"white",NA,"f","Inf","control2",1
"med","med",4,45,1673,"white","mirror","f","657e1a1580ea9","control1",1
"med","med",4,526,1846,"white","mirror","j","657f6bfb51682","control2",1
"med","med",4,109,1478,"pink","mirror","f","657e14c5630d9","exp",1
"med","med",4,96,1630,"white","mirror","f","657e1f4edabb8","control1",1
"med","med",4,294,1333,"tan",NA,"f","657e1f4edabb8","exp",1
"med","med",4,30,1862,"white",NA,"f","657f6bfb51682","control1",1
"med","med",4,387,2043,"white",NA,"f","657e14c5630d9","control2",1
"med","med",4,156,1894,"purple","mirror","f","657e237cce8ca","exp",1
"med","med",4,177,1440,"pink",NA,"f","Inf","exp",1
"med","med",4,429,1136,"purple","mirror","f","657e1a1580ea9","exp",1
"med","med",4,273,2015,"purple","mirror","j","657f6bfb51682","exp",1
"med","med",4,75,1318,"white",NA,"f","657e2967c5345","control1",1
"med","med",4,489,1408,"white","mirror","f","657e1a1580ea9","control2",1
"med","med",4,164,2987,"tan",NA,"f","657e14c5630d9","exp",1
"med","med",4,51,1698,"white","mirror","f","657e237cce8ca","control1",1
"med","med",4,156,1123,"pink","mirror","f","657e2dc92ea25","exp",1
"med","med",4,551,1341,"white","mirror","f","657e2dc92ea25","control2",1
"med","med",4,175,1079,"pink","mirror","j","657e1f4edabb8","exp",1
"med","med",4,89,1241,"pink","mirror","f","657e11e1938dd","exp",1
"med","med",4,473,1277,"white",NA,"f","657e2967c5345","control2",1
"med","med",4,269,1174,"tan",NA,"f","657e2dc92ea25","exp",1
"med","med",4,214,3073,"tan",NA,"f","657e1a1580ea9","exp",1
"med","med",4,98,1573,"white",NA,"f","657e2dc92ea25","control1",1
"med","med",4,393,1153,"white","mirror","f","657e11e1938dd","control2",1
"med","med",4,285,1177,"teal",NA,"f","657e237cce8ca","exp",1
"med","med",4,244,1519,"purple","mirror","f","Inf","exp",1
"med","med",4,316,1578,"tan",NA,"f","657f6bfb51682","exp",1
"med","med",4,510,1204,"white","mirror","f","657e1f4edabb8","control2",1
"med","med",4,300,1010,"pink",NA,"f","657e2967c5345","exp",1
"med","med",4,169,1250,"teal",NA,"f","657e11e1938dd","exp",1
"med","med",6,356,1249,"white",NA,"f","657e11e1938dd","control2",1
"med","med",6,413,2460,"white","mirror","f","657e14c5630d9","control2",1
"med","med",6,63,1357,"white",NA,"f","657e2dc92ea25","control1",1
"med","med",6,175,1030,"tan","mirror","f","657e2dc92ea25","exp",1
"med","med",6,320,1260,"purple",NA,"f","657e2dc92ea25","exp",1
"med","med",6,302,1393,"pink","mirror","j","657e1f4edabb8","exp",1
"med","med",6,545,2450,"white",NA,"f","657e1a1580ea9","control2",1
"med","med",6,263,1600,"purple","mirror","f","657e1a1580ea9","exp",1
"med","med",6,504,1115,"white","mirror","f","657e1f4edabb8","control2",1
"med","med",6,240,2137,"tan",NA,"f","657e14c5630d9","exp",1
"med","med",6,47,1447,"white",NA,"j","657e2967c5345","control1",1
"med","med",6,493,1577,"white","mirror","f","Inf","control2",1
"med","med",6,171,5757,"purple","mirror","j","657f6bfb51682","exp",1
"med","med",6,88,1507,"white",NA,"f","Inf","control1",1
"med","med",6,181,1411,"tan",NA,"f","657e11e1938dd","exp",1
"med","med",6,514,1490,"white",NA,"f","657e237cce8ca","control2",1
"med","med",6,402,2217,"tan",NA,"f","Inf","exp",1
"med","med",6,359,1391,"teal",NA,"f","657e237cce8ca","exp",1
"med","med",6,12,3695,"white","mirror","j","657f6bfb51682","control1",1
"med","med",6,94,1618,"white",NA,"f","657e1a1580ea9","control1",1
"med","med",6,265,2320,"pink",NA,"f","657f6bfb51682","exp",1
"med","med",6,177,1225,"purple",NA,"f","657e2967c5345","exp",1
"med","med",6,162,2233,"purple","mirror","f","657e237cce8ca","exp",1
"med","med",6,539,1131,"white","mirror","f","657e2967c5345","control2",1
"med","med",6,201,1671,"pink","mirror","f","Inf","exp",1
"med","med",6,195,1421,"teal",NA,"f","657e1f4edabb8","exp",1
"med","med",6,491,2034,"white","mirror","j","657f6bfb51682","control2",1
"med","med",6,263,858,"tan","mirror","f","657e2967c5345","exp",1
"med","med",6,335,1250,"tan",NA,"f","657e1a1580ea9","exp",1
"med","med",6,86,2010,"white",NA,"f","657e237cce8ca","control1",1
"med","med",6,534,1248,"white",NA,"f","657e2dc92ea25","control2",1
"med","med",6,33,1444,"pink","mirror","j","657e14c5630d9","exp",1
"med","med",6,17,1542,"pink","mirror","f","657e11e1938dd","exp",1
"med","med",6,30,1543,"white",NA,"f","657e1f4edabb8","control1",1
"med","med",7,90,1274,"white",NA,"f","657e2967c5345","control1",1
"med","med",7,340,2717,"white",NA,"f","657e14c5630d9","control2",1
"med","med",7,10,2934,"white",NA,"f","657e237cce8ca","control1",1
"med","med",7,38,3736,"white","mirror","f","657f6bfb51682","control1",1
"med","med",7,118,2071,"white","mirror","f","657e2dc92ea25","control1",1
